stamp,ax,ay,az,gx,gy,gz,px,py,pz,vx,vy,vz,qw,qx,qy,qz,bw_x,bw_y,bw_z,ba_x,ba_y,ba_z
1782727127.427850485,-4.333419452,0.151354831,8.823733457,0.005046021,-0.006968270,0.000042237,0.000000000,0.000000000,0.000000000,0.000000000,0.000000000,0.000000000,0.973078612,-0.002981917,0.230454168,0.000000000,0.011528156,-0.005530163,-0.004559705,0.000000000,-0.000000000,0.000000000
1782727127.432035446,-4.194145225,-0.004728353,8.691663071,-0.000280302,-0.009098799,0.008564353,0.000001022,0.000001140,-0.000000532,0.000488512,0.000544766,-0.000254466,0.973079761,-0.002996264,0.230449126,0.000022472,0.011528156,-0.005530163,-0.004559705,0.000000000,-0.000000000,0.000000000
1782727127.437763691,-4.124508112,-0.184824326,8.650841315,0.002915494,-0.011229329,0.008564353,0.000006631,0.000003631,-0.000005008,0.001469841,0.000325003,-0.001308070,0.973082730,-0.003016059,0.230436323,0.000065828,0.011528156,-0.005530163,-0.004559705,0.000000000,-0.000000000,0.000000000
1782727127.442048311,-4.244572100,-0.247257600,8.653242594,0.014633399,0.001553846,0.006433826,0.000014217,0.000003557,-0.000012348,0.002071347,-0.000359777,-0.002118241,0.973082369,-0.003015846,0.230437844,0.000092321,0.011528156,-0.005530163,-0.004559705,0.000000000,-0.000000000,0.000000000
1782727127.447608948,-4.439075761,-0.240053760,8.677255392,0.009307079,-0.001641948,0.001107503,0.000025829,-0.000001341,-0.000025775,0.002105153,-0.001401788,-0.002710951,0.973078855,-0.003009315,0.230452756,0.000114530,0.011528156,-0.005530163,-0.004559705,0.000000000,-0.000000000,0.000000000
1782727127.452089071,-4.463088559,-0.223244802,8.847746255,0.003980756,-0.003772477,-0.005284086,0.000034781,-0.000009373,-0.000037626,0.001890791,-0.002183747,-0.002579838,0.973077364,-0.003018686,0.230458925,0.000122419,0.011528156,-0.005530163,-0.004559705,0.000000000,-0.000000000,0.000000000
1782727127.457875967,-4.304604094,-0.151206418,8.862153933,0.019959722,0.004749639,-0.005284086,0.000046626,-0.000024181,-0.000051191,0.002203177,-0.002934018,-0.002108341,0.973073355,-0.003017926,0.230475865,0.000120032,0.011528156,-0.005530163,-0.004559705,0.000000000,-0.000000000,0.000000000
1782727127.462211370,-4.410260404,-0.129594901,8.766102743,0.012502875,0.003684375,-0.012740932,0.000056738,-0.000037683,-0.000060023,0.002461634,-0.003294694,-0.001965841,0.973068516,-0.003010233,0.230496397,0.000108226,0.011528156,-0.005530163,-0.004559705,0.000000000,-0.000000000,0.000000000
1782727127.467768908,-4.266183618,-0.168015368,8.653242594,0.005046021,-0.011229329,-0.015936732,0.000070883,-0.000057412,-0.000072015,0.002628524,-0.003805255,-0.002349594,0.973067370,-0.003023943,0.230501067,0.000083533,0.011528156,-0.005530163,-0.004559705,0.000000000,-0.000000000,0.000000000
1782727127.472078800,-4.148520910,-0.292881915,8.590809321,0.017829198,-0.006968270,-0.018067256,0.000083211,-0.000075428,-0.000084051,0.003092458,-0.004555011,-0.003235733,0.973069144,-0.003030312,0.230493503,0.000057511,0.011528156,-0.005530163,-0.004559705,0.000000000,-0.000000000,0.000000000
1782727127.477632284,-4.662394779,-0.350512648,8.725280987,0.014633399,-0.011229329,-0.018067256,0.000099562,-0.000104805,-0.000103316,0.002796263,-0.006024667,-0.003702294,0.973071469,-0.003026249,0.230483747,0.000018034,0.011528156,-0.005530163,-0.004559705,0.000000000,-0.000000000,0.000000000
1782727127.482044935,-4.508712874,-0.254461439,8.823733457,0.021024991,-0.012294592,-0.011675671,0.000110321,-0.000133770,-0.000118672,0.002079768,-0.007103696,-0.003257771,0.973074680,-0.003017965,0.230470299,-0.000007267,0.011528156,-0.005530163,-0.004559705,0.000000000,-0.000000000,0.000000000
1782727127.487705469,-4.583152546,0.026488284,8.905376969,0.031677637,-0.000576683,-0.008479878,0.000120701,-0.000174881,-0.000134512,0.001587931,-0.007421608,-0.002338864,0.973075396,-0.002980741,0.230467758,-0.000032125,0.011528156,-0.005530163,-0.004559705,0.000000000,-0.000000000,0.000000000
1782727127.491975069,-4.424668082,0.196979156,8.866956493,0.026351314,0.005814903,-0.011675671,0.000127120,-0.000205027,-0.000143026,0.001418941,-0.006699783,-0.001649319,0.973071497,-0.002947130,0.230484650,-0.000052243,0.011528156,-0.005530163,-0.004559705,0.000000000,-0.000000000,0.000000000
1782727127.497812510,-4.566343588,0.228195793,8.864555213,0.013568137,-0.002707212,-0.006349348,0.000134706,-0.000239546,-0.000150287,0.001180019,-0.005126794,-0.000838389,0.973066802,-0.002926178,0.230504730,-0.000070623,0.011528156,-0.005530163,-0.004559705,0.000000000,-0.000000000,0.000000000
1782727127.502180576,-4.290196416,0.247406031,8.792516820,0.019959722,-0.000576683,-0.001023028,0.000139885,-0.000259134,-0.000153230,0.001191394,-0.003841930,-0.000509232,0.973064878,-0.002914610,0.230512998,-0.000071427,0.011528156,-0.005530163,-0.004559705,0.000000000,-0.000000000,0.000000000
1782727127.507786989,-4.357432249,0.247406031,8.708472029,0.012502875,-0.000576683,0.007499088,0.000147526,-0.000275915,-0.000156734,0.001534519,-0.002144645,-0.000740745,0.973061717,-0.002896742,0.230526572,-0.000053237,0.011528156,-0.005530163,-0.004559705,0.000000000,-0.000000000,0.000000000
1782727127.512041569,-4.609566624,0.206584275,8.672452832,0.001850229,-0.018686179,0.004303295,0.000153072,-0.000282486,-0.000160095,0.001072474,-0.000944073,-0.000839410,0.973063703,-0.002900620,0.230518148,-0.000029423,0.011528156,-0.005530163,-0.004559705,0.000000000,-0.000000000,0.000000000
1782727127.517687798,-4.386247606,0.050501081,8.768504023,-0.002410829,-0.020816708,0.006433826,0.000157395,-0.000284880,-0.000164665,0.000458826,0.000096243,-0.000779329,0.973072860,-0.002926599,0.230479163,0.000005651,0.011528156,-0.005530163,-0.004559705,0.000000000,-0.000000000,0.000000000
1782727127.522068024,-4.359833529,0.016883165,8.828536017,-0.000280302,-0.008033535,0.005368561,0.000159766,-0.000283595,-0.000167840,0.000623814,0.000490349,-0.000670172,0.973077266,-0.002948754,0.230460273,0.000034500,0.011528156,-0.005530163,-0.004559705,0.000000000,-0.000000000,0.000000000
1782727127.527734756,-4.415062963,-0.047951389,8.876561612,0.003980756,-0.008033535,0.008564353,0.000164087,-0.000280153,-0.000170354,0.000901217,0.000724252,-0.000217102,0.973078818,-0.002967910,0.230453466,0.000072619,0.011528156,-0.005530163,-0.004559705,0.000000000,-0.000000000,0.000000000
1782727127.532070398,-4.093291476,-0.093575704,8.682057952,0.009307079,-0.008033535,0.007499088,0.000169265,-0.000277150,-0.000171718,0.001487406,0.000661007,-0.000412029,0.973080035,-0.002971923,0.230448265,0.000101637,0.011528156,-0.005530163,-0.004559705,0.000000000,-0.000000000,0.000000000
1782727127.537826300,-4.054870999,-0.151206418,8.634032356,0.007176552,-0.003772477,0.002172768,0.000181833,-0.000274459,-0.000177963,0.002879479,0.000274276,-0.001757857,0.973080251,-0.002974894,0.230447300,0.000130132,0.011528156,-0.005530163,-0.004559705,0.000000000,-0.000000000,0.000000000
1782727127.542188644,-4.153323470,-0.252060159,8.590809321,0.002915494,-0.001641948,0.000042237,0.000196248,-0.000274656,-0.000188111,0.003729328,-0.000364896,-0.002895029,0.973078788,-0.002985805,0.230453327,0.000145400,0.011528156,-0.005530163,-0.004559705,0.000000000,-0.000000000,0.000000000
1782727127.547834635,-4.503910314,-0.388933124,8.679656672,0.002915494,-0.002707212,-0.010610409,-0.009965108,0.000295011,-0.001431022,0.001593986,-0.000588868,-0.003807940,0.973198362,-0.004045192,0.229924409,0.001830711,0.011530174,-0.005529360,-0.004561726,0.000000005,-0.000000000,0.000000003
1782727127.551973104,-4.311807934,-0.340907529,8.818930898,0.007176552,0.000488581,-0.013806202,-0.009958719,0.000290041,-0.001446788,0.001493652,-0.001812962,-0.003811223,0.973196233,-0.004061904,0.229933221,0.001818360,0.011530174,-0.005529360,-0.004561726,0.000000005,-0.000000000,0.000000003
1782727127.557845354,-4.604764064,-0.290480635,8.857351374,0.018894460,0.002619110,-0.013806202,-0.009950455,0.000275158,-0.001467429,0.001320718,-0.003255781,-0.003218815,0.973191518,-0.004063882,0.229953358,0.001790844,0.011530174,-0.005529360,-0.004561726,0.000000005,-0.000000000,0.000000003
1782727127.562107325,-4.496706475,-0.139200020,8.840542416,0.024220783,0.001553846,-0.011675671,-0.009945803,0.000259964,-0.001479774,0.000862508,-0.003874298,-0.002574361,0.973187904,-0.004047123,0.229969120,0.001768902,0.011530174,-0.005529360,-0.004561726,0.000000005,-0.000000000,0.000000003
1782727127.567815781,-4.225361862,0.043297242,8.845344975,0.021024991,-0.002707212,-0.015936732,-0.009939921,0.000238201,-0.001493496,0.001198326,-0.003750553,-0.002233289,0.973184827,-0.004022404,0.229982826,0.001735885,0.011530174,-0.005529360,-0.004561726,0.000000005,-0.000000000,0.000000003
1782727127.571780443,-4.335820731,-0.062359067,8.559592684,0.017829198,-0.003772477,-0.013806202,-0.009934637,0.000223795,-0.001503153,0.001467008,-0.003516993,-0.002638247,0.973183881,-0.004011878,0.229987188,0.001712377,0.011530174,-0.005529360,-0.004561726,0.000000005,-0.000000000,0.000000003
1782727127.577628851,-4.523120552,-0.059957788,8.658045154,0.016763929,-0.010164063,-0.013806202,-0.009927889,0.000203332,-0.001520616,0.000840659,-0.003480692,-0.003333470,0.973184962,-0.004001678,0.229983013,0.001682208,0.011530174,-0.005529360,-0.004561726,0.000000005,-0.000000000,0.000000003
1782727127.582058907,-4.520719273,-0.055155228,8.766102743,0.014633399,-0.019751444,-0.011675671,-0.009925578,0.000188016,-0.001535238,0.000202827,-0.003433905,-0.003267868,0.973189832,-0.003996824,0.229962632,0.001662537,0.011530174,-0.005529360,-0.004561726,0.000000005,-0.000000000,0.000000003
1782727127.587551832,-4.734433171,0.057704921,8.878962892,0.023155522,-0.003772477,-0.008479878,-0.009927325,0.000170209,-0.001550768,-0.000838953,-0.003049576,-0.002386496,0.973193874,-0.003980595,0.229945946,0.001643211,0.011530174,-0.005529360,-0.004561726,0.000000005,-0.000000000,0.000000003
1782727127.592073679,-4.609566624,0.153756120,8.953402564,0.018894460,-0.000576683,-0.007414613,-0.009933039,0.000158207,-0.001558866,-0.001688329,-0.002258954,-0.001195621,0.973192228,-0.003961476,0.229953333,0.001630795,0.011530174,-0.005529360,-0.004561726,0.000000005,-0.000000000,0.000000003
1782727127.597732544,-4.463088559,0.225794513,8.816529618,0.008241814,-0.004837741,-0.005284086,-0.009943886,0.000149567,-0.001562844,-0.002145250,-0.000794721,-0.000210196,0.973190423,-0.003957041,0.229961093,0.001624515,0.011530174,-0.005529360,-0.004561726,0.000000005,-0.000000000,0.000000003
1782727127.601955175,-4.263782339,0.225794513,8.857351374,0.014633399,-0.001641948,0.006433826,-0.009952478,0.000148837,-0.001563254,-0.001924500,0.000448859,0.000015959,0.973189292,-0.003954745,0.229965840,0.001635095,0.011530174,-0.005529360,-0.004561726,0.000000005,-0.000000000,0.000000003
1782727127.607844114,-4.362234809,0.156157400,8.713274588,0.013568137,-0.001641948,0.016021203,-0.009962517,0.000155967,-0.001563419,-0.001484895,0.001972834,-0.000071933,0.973186613,-0.003936706,0.229977175,0.001678554,0.011530174,-0.005529360,-0.004561726,0.000000005,-0.000000000,0.000000003
1782727127.612133980,-4.309406654,0.192176596,8.504363249,0.002915494,-0.015490387,0.006433826,-0.009969115,0.000166641,-0.001565222,-0.001591287,0.003003616,-0.000768662,0.973188026,-0.003935771,0.229970958,0.001713160,0.011530174,-0.005529360,-0.004561726,0.000000005,-0.000000000,0.000000003
1782727127.617930651,-4.282992577,0.019284444,8.701268190,-0.008802418,-0.015490387,0.008564353,-0.009978210,0.000186947,-0.001572787,-0.001546501,0.004002250,-0.001841353,0.973194438,-0.003968507,0.229942926,0.001756940,0.011530174,-0.005529360,-0.004561726,0.000000005,-0.000000000,0.000000003
1782727127.621999741,-4.458285999,-0.136798740,8.732484826,-0.004541360,-0.013359858,0.001107503,-0.009984563,0.000203308,-0.001580682,-0.001576135,0.004039387,-0.002039124,0.973198418,-0.004000119,0.229925323,0.001784135,0.011530174,-0.005529360,-0.004561726,0.000000005,-0.000000000,0.000000003
1782727127.627783298,-4.386247606,-0.232849921,8.730083547,-0.008802418,-0.008033535,-0.003153555,-0.009994458,0.000224729,-0.001592671,-0.001845758,0.003368097,-0.002106950,0.973201624,-0.004048965,0.229910728,0.001806256,0.011530174,-0.005529360,-0.004561726,0.000000005,-0.000000000,0.000000003
1782727127.632035732,-4.225361862,-0.283276796,8.890969291,0.001850229,-0.001641948,0.000042237,-0.010001462,0.000237352,-0.001601563,-0.001448494,0.002569004,-0.002074877,0.973201144,-0.004078550,0.229912127,0.001819806,0.011530174,-0.005529360,-0.004561726,0.000000005,-0.000000000,0.000000003
1782727127.637781382,-4.098094035,-0.328901130,8.665248993,0.011437606,0.001553846,0.002172768,-0.010006346,0.000248220,-0.001614897,-0.000251465,0.001213778,-0.002566627,0.973197434,-0.004088495,0.229927504,0.001838819,0.011530174,-0.005529360,-0.004561726,0.000000005,-0.000000000,0.000000003
1782727127.642104626,-4.302202815,-0.386531844,8.636433636,0.012502875,-0.000576683,-0.004218820,-0.010006335,0.000250768,-0.001627692,0.000256782,-0.000034603,-0.003352753,0.973194433,-0.004085835,0.229940197,0.001845992,0.011530174,-0.005529360,-0.004561726,0.000000005,-0.000000000,0.000000003
1782727127.647844315,-4.431871922,-0.386531844,8.806924499,0.017829198,-0.002707212,-0.009545140,-0.010004854,0.000245342,-0.001647654,0.000259030,-0.001856150,-0.003602989,0.973191922,-0.004077232,0.229951046,0.001837066,0.011530174,-0.005529360,-0.004561726,0.000000005,-0.000000000,0.000000003
1782727127.652165174,-4.477496237,-0.244856320,8.715675868,0.021024991,0.000488581,-0.009545140,-0.010004300,0.000235021,-0.001662937,-0.000002212,-0.002921363,-0.003470963,0.973189816,-0.004063122,0.229960326,0.001822627,0.011530174,-0.005529360,-0.004561726,0.000000005,-0.000000000,0.000000003
1782727127.657834530,-4.595158945,-0.136798740,8.739688666,0.025286045,0.001553846,-0.017001994,-0.010006704,0.000216491,-0.001682034,-0.000846031,-0.003615559,-0.003265979,0.973185724,-0.004036764,0.229978357,0.001790940,0.011530174,-0.005529360,-0.004561726,0.000000005,-0.000000000,0.000000003
1782727127.662197828,-4.676802457,-0.035944990,8.919784648,0.012502875,-0.009098799,-0.020197786,-0.010012230,0.000200551,-0.001694654,-0.001687087,-0.003690918,-0.002518602,0.973184961,-0.004028179,0.229981992,0.001757424,0.011530174,-0.005529360,-0.004561726,0.000000005,-0.000000000,0.000000003
1782727127.667793989,-4.218158023,0.033692123,8.874160332,0.019959722,-0.004837741,-0.019132525,-0.010021588,0.000180976,-0.001706456,-0.001657050,-0.003304842,-0.001699172,0.973186013,-0.004025089,0.229977926,0.001713288,0.011530174,-0.005529360,-0.004561726,0.000000005,-0.000000000,0.000000003
1782727127.671808481,-4.441477041,-0.004728353,8.758898904,0.022090252,-0.002707212,-0.015936732,-0.010027639,0.000168385,-0.001713102,-0.001357705,-0.002967754,-0.001611992,0.973185323,-0.004012536,0.229981286,0.001683549,0.011530174,-0.005529360,-0.004561726,0.000000005,-0.000000000,0.000000003
1782727127.677701950,-4.532725672,0.002475486,8.720478428,0.014633399,-0.013359858,-0.011675671,-0.010037387,0.000152065,-0.001722194,-0.001950227,-0.002570727,-0.001473364,0.973187146,-0.003999198,0.229974029,0.001652439,0.011530174,-0.005529360,-0.004561726,0.000000005,-0.000000000,0.000000003
1782727127.682105780,-4.302202815,0.048099802,8.701268190,0.022090252,-0.015490387,-0.002088290,-0.010046476,0.000141650,-0.001729008,-0.002177817,-0.002159360,-0.001621338,0.973191719,-0.003985701,0.229954971,0.001644085,0.011530174,-0.005529360,-0.004561726,0.000000005,-0.000000000,0.000000003
1782727127.687599659,-4.638381981,0.120138194,8.703669469,0.015698668,-0.008033535,-0.005284086,-0.010060000,0.000132076,-0.001738185,-0.002745394,-0.001325821,-0.001719572,0.973195733,-0.003965433,0.229938352,0.001641842,0.011530174,-0.005529360,-0.004561726,0.000000005,-0.000000000,0.000000003
1782727127.692048311,-4.712821653,0.120138194,8.924587207,0.010372344,-0.008033535,-0.003153555,-0.010074561,0.000128042,-0.001744117,-0.003800741,-0.000487976,-0.000947264,0.973197025,-0.003961990,0.229932940,0.001641837,0.011530174,-0.005529360,-0.004561726,0.000000005,-0.000000000,0.000000003
1782727127.697846174,-4.328616892,0.247406031,8.905376969,0.011437606,-0.005903006,0.000042237,-0.010097504,0.000129464,-0.001746348,-0.004113794,0.000978815,0.000177703,0.973197963,-0.003961743,0.229928912,0.001650751,0.011530174,-0.005529360,-0.004561726,0.000000005,-0.000000000,0.000000003
1782727127.701911926,-4.210954184,0.196979156,8.756497624,0.015698668,-0.000576683,0.004303295,-0.010113133,0.000135848,-0.001745574,-0.003574318,0.002161359,0.000203352,0.973196886,-0.003954571,0.229933503,0.001663103,0.011530174,-0.005529360,-0.004561726,0.000000005,-0.000000000,0.000000003
1782727127.707776546,-4.270986178,0.196979156,8.718077148,-0.000280302,-0.004837741,0.009629618,-0.010132086,0.000153077,-0.001745931,-0.002889213,0.003714314,-0.000325385,0.973194882,-0.003957716,0.229941671,0.001698545,0.011530174,-0.005529360,-0.004561726,0.000000005,-0.000000000,0.000000003
1782727127.712116241,-4.201349065,-0.059957788,8.624427237,-0.006671887,-0.015490387,0.006433826,-0.010143758,0.000170478,-0.001748760,-0.002489881,0.004305015,-0.000978379,0.973197019,-0.003983104,0.229931937,0.001732665,0.011530174,-0.005529360,-0.004561726,0.000000005,-0.000000000,0.000000003
1782727127.717688799,-4.040463321,-0.194429445,8.530777327,-0.003476094,-0.010164063,0.006433826,-0.010155245,0.000193542,-0.001758629,-0.001632699,0.003972530,-0.002563378,0.973201455,-0.004021048,0.229912189,0.001773200,0.011530174,-0.005529360,-0.004561726,0.000000005,-0.000000000,0.000000003
1782727127.721995115,-4.532725672,-0.336104969,8.703669469,0.001850229,-0.006968270,-0.002088290,-0.010162053,0.000208819,-0.001771280,-0.001529353,0.003122794,-0.003312138,0.973202825,-0.004043567,0.229905837,0.001793448,0.011530174,-0.005529360,-0.004561726,0.000000005,-0.000000000,0.000000003
1782727127.727813482,-4.379043767,-0.398538243,8.785312981,0.009307079,-0.010164063,0.000042237,-0.010172137,0.000221939,-0.001790273,-0.001936994,0.001386985,-0.003216616,0.973204768,-0.004058035,0.229897250,0.001807483,0.011530174,-0.005529360,-0.004561726,0.000000005,-0.000000000,0.000000003
1782727127.732017994,-4.391050166,-0.316894731,8.900574410,0.014633399,0.000488581,-0.007414613,-0.010179952,0.000225227,-0.001803155,-0.001780083,0.000176994,-0.002910984,0.973204434,-0.004056714,0.229898674,0.001809056,0.011530174,-0.005529360,-0.004561726,0.000000005,-0.000000000,0.000000003
1782727127.737784863,-4.249374660,-0.254461439,8.842943695,0.026351314,0.009010697,-0.007414613,-0.010188415,0.000222659,-0.001818796,-0.001155056,-0.001067346,-0.002513512,0.973197739,-0.004033509,0.229927531,0.001794989,0.011530174,-0.005529360,-0.004561726,0.000000005,-0.000000000,0.000000003
1782727127.742155075,-4.470292398,-0.160811528,8.658045154,0.015698668,-0.001641948,-0.011675671,-0.010193285,0.000216666,-0.001829994,-0.001073540,-0.001675324,-0.002611126,0.973193213,-0.004015858,0.229947118,0.001779540,0.011530174,-0.005529360,-0.004561726,0.000000005,-0.000000000,0.000000003
1782727127.747887373,-4.266183618,-0.199232004,8.770905303,0.017829198,-0.006968270,-0.012740932,-0.010199522,0.000205224,-0.001845799,-0.001102607,-0.002316763,-0.002903343,0.973192505,-0.004006305,0.229950472,0.001754748,0.011530174,-0.005529360,-0.004561726,0.000000005,-0.000000000,0.000000003
1782727127.751966000,-4.472693678,-0.107983383,8.725280987,0.027416576,0.001553846,-0.012740932,-0.010203945,0.000195064,-0.001857812,-0.001066434,-0.002665274,-0.002987222,0.973191301,-0.003988136,0.229956045,0.001733290,0.011530174,-0.005529360,-0.004561726,0.000000005,-0.000000000,0.000000003
1782727127.757824659,-4.741637011,-0.009530913,8.749293785,0.017829198,-0.006968270,-0.017001994,-0.010213778,0.000179598,-0.001874017,-0.002290219,-0.002614588,-0.002544772,0.973189581,-0.003963472,0.229964026,0.001696394,0.011530174,-0.005529360,-0.004561726,0.000000005,-0.000000000,0.000000003
1782727127.762271166,-4.542330791,0.127342034,8.866956493,0.017829198,-0.013359858,-0.012740932,-0.010226029,0.000169226,-0.001883813,-0.003220071,-0.002050659,-0.001861659,0.973192044,-0.003955096,0.229953931,0.001670908,0.011530174,-0.005529360,-0.004561726,0.000000005,-0.000000000,0.000000003
1782727127.767613411,-4.328616892,0.204182995,8.866956493,0.011437606,-0.011229329,-0.010610409,-0.010243217,0.000161617,-0.001892145,-0.003214799,-0.000797945,-0.001257644,0.973196264,-0.003951369,0.229936283,0.001650580,0.011530174,-0.005529360,-0.004561726,0.000000005,-0.000000000,0.000000003
1782727127.771852016,-4.479897517,0.110533075,8.871759052,0.014633399,-0.001641948,-0.001023028,-0.010256574,0.000160266,-0.001896566,-0.003087715,0.000160482,-0.000828278,0.973196722,-0.003948873,0.229934409,0.001647266,0.011530174,-0.005529360,-0.004561726,0.000000005,-0.000000000,0.000000003
1782727127.777652025,-4.323814332,0.153756120,8.835739856,0.010372344,-0.009098799,0.005368561,-0.010274058,0.000164570,-0.001899916,-0.002941106,0.001323706,-0.000326891,0.973196595,-0.003941638,0.229934939,0.001665622,0.011530174,-0.005529360,-0.004561726,0.000000005,-0.000000000,0.000000003
1782727127.782026052,-4.129310672,0.096125397,8.492356851,0.012502875,-0.006968270,0.002172768,-0.010285994,0.000172195,-0.001902892,-0.002516543,0.002162867,-0.001033690,0.973197823,-0.003937635,0.229929681,0.001683425,0.011530174,-0.005529360,-0.004561726,0.000000005,-0.000000000,0.000000003
1782727127.787640333,-4.631178142,-0.007129633,8.754096344,0.010372344,-0.002707212,0.000042237,-0.010301039,0.000186083,-0.001910724,-0.002843233,0.002784404,-0.001756576,0.973197349,-0.003934232,0.229931633,0.001698964,0.011530174,-0.005529360,-0.004561726,0.000000005,-0.000000000,0.000000003
1782727127.791989565,-4.580751267,0.000074207,8.914982088,0.002915494,-0.014425121,0.001107503,-0.010314969,0.000198800,-0.001916836,-0.003562421,0.003063677,-0.001053944,0.973198806,-0.003941994,0.229925232,0.001712304,0.011530174,-0.005529360,-0.004561726,0.000000005,-0.000000000,0.000000003
1782727127.797953844,-4.254177219,0.093724117,8.720478428,0.010372344,-0.004837741,0.002172768,-0.010336302,0.000219116,-0.001922023,-0.003591148,0.003748815,-0.000685280,0.973201529,-0.003951901,0.229913374,0.001733702,0.011530174,-0.005529360,-0.004561726,0.000000005,-0.000000000,0.000000003
1782727127.802030802,-4.501509035,0.043297242,8.845344975,0.000784963,-0.000576683,0.001107503,-0.010350818,0.000235533,-0.001924710,-0.003529861,0.004304722,-0.000633120,0.973200137,-0.003960812,0.229919002,0.001748772,0.011530174,-0.005529360,-0.004561726,0.000000005,-0.000000000,0.000000003
1782727127.807869196,-3.987635166,-0.160811528,8.552388845,-0.002410829,-0.003772477,0.000042237,-0.010369766,0.000260821,-0.001930471,-0.002960863,0.004357771,-0.001340318,0.973197715,-0.003992447,0.229928529,0.001771611,0.011530174,-0.005529360,-0.004561726,0.000000005,-0.000000000,0.000000003
1782727127.812102556,-3.987635166,-0.160811528,8.552388845,-0.002410829,-0.003772477,0.000042237,-0.010379950,0.000278432,-0.001939428,-0.001850499,0.003962460,-0.002891393,0.973196725,-0.004018931,0.229932135,0.001787865,0.011530174,-0.005529360,-0.004561726,0.000000005,-0.000000000,0.000000003
1782727127.817916870,-4.294998975,-0.393735683,8.612420839,0.011437606,-0.013359858,-0.001023028,-0.010388364,0.000297928,-0.001960803,-0.001043747,0.002743910,-0.004460958,0.973198651,-0.004036046,0.229923554,0.001804109,0.011530174,-0.005529360,-0.004561726,0.000000005,-0.000000000,0.000000003
1782727127.821958780,-4.319011773,-0.417748481,8.674854112,0.011437606,-0.013359858,-0.001023028,-0.010392433,0.000306259,-0.001979978,-0.000969476,0.001378377,-0.005027387,0.973202276,-0.004034555,0.229908181,0.001811176,0.011530174,-0.005529360,-0.004561726,0.000000005,-0.000000000,0.000000003
1782727127.827897072,-4.323814332,-0.316894731,8.696465630,0.024220783,-0.000576683,-0.002088290,-0.010397766,0.000309164,-0.002011532,-0.000826914,-0.000400059,-0.005599808,0.973203317,-0.004014294,0.229904093,0.001815580,0.011530174,-0.005529360,-0.004561726,0.000000005,-0.000000000,0.000000003
1782727127.832073450,-4.513515433,-0.220843522,8.794918100,0.014633399,0.004749639,-0.012740932,-0.010401537,0.000305741,-0.002034918,-0.000978618,-0.001239164,-0.005599312,0.973199738,-0.003999644,0.229919576,0.001805927,0.011530174,-0.005529360,-0.004561726,0.000000005,-0.000000000,0.000000003
1782727127.837614059,-4.566343588,-0.153607698,8.970211523,0.013568137,0.004749639,-0.012740932,-0.010408239,0.000297061,-0.002063237,-0.001440676,-0.001894164,-0.004622925,0.973193259,-0.003997975,0.229947211,0.001782124,0.011530174,-0.005529360,-0.004561726,0.000000005,-0.000000000,0.000000003
1782727127.841954231,-4.302202815,-0.028741151,8.809325779,0.030612368,0.007945432,-0.010610409,-0.010414357,0.000288631,-0.002082032,-0.001378563,-0.001990534,-0.004038279,0.973187451,-0.003979268,0.229972273,0.001761727,0.011530174,-0.005529360,-0.004561726,0.000000005,-0.000000000,0.000000003
1782727127.847857952,-4.508712874,0.024087004,8.763701463,0.019959722,-0.009098799,-0.013806202,-0.010422605,0.000278017,-0.002105370,-0.001415850,-0.001605085,-0.003867870,0.973184289,-0.003944968,0.229986482,0.001730365,0.011530174,-0.005529360,-0.004561726,0.000000005,-0.000000000,0.000000003
1782727127.852156162,-4.508712874,0.024087004,8.763701463,0.019959722,-0.009098799,-0.013806202,-0.010429699,0.000271960,-0.002121491,-0.001884976,-0.001213047,-0.003633588,0.973186159,-0.003931894,0.229978970,0.001706894,0.011530174,-0.005529360,-0.004561726,0.000000005,-0.000000000,0.000000003
1782727127.857863426,-4.628776862,0.069711319,8.847746255,0.010372344,-0.011229329,-0.005284086,-0.010442809,0.000266898,-0.002140295,-0.002709070,-0.000561104,-0.002955591,0.973189266,-0.003925045,0.229966060,0.001690720,0.011530174,-0.005529360,-0.004561726,0.000000005,-0.000000000,0.000000003
1782727127.862238646,-4.628776862,0.069711319,8.847746255,0.010372344,-0.011229329,-0.005284086,-0.010456381,0.000265758,-0.002151474,-0.003495003,0.000039895,-0.002154571,0.973192126,-0.003927852,0.229953915,0.001689814,0.011530174,-0.005529360,-0.004561726,0.000000005,-0.000000000,0.000000003
1782727127.867626667,-4.633579421,0.136947153,8.987020481,0.013568137,-0.015490387,-0.002088290,-0.010477407,0.000268462,-0.002159509,-0.004309716,0.000964042,-0.000828095,0.973196977,-0.003926120,0.229933396,0.001691920,0.011530174,-0.005529360,-0.004561726,0.000000005,-0.000000000,0.000000003
1782727127.871826887,-4.309406654,0.204182995,8.782911701,0.015698668,-0.009098799,0.003238030,-0.010495716,0.000274615,-0.002161706,-0.004408602,0.001965807,-0.000217901,0.973200251,-0.003917273,0.229919623,0.001700975,0.011530174,-0.005529360,-0.004561726,0.000000005,-0.000000000,0.000000003
1782727127.877496719,-4.280591297,0.180170198,8.778109142,0.007176552,-0.002707212,0.002172768,-0.010519308,0.000289929,-0.002163379,-0.003913012,0.003436163,-0.000372470,0.973200458,-0.003912790,0.229918672,0.001721089,0.011530174,-0.005529360,-0.004561726,0.000000005,-0.000000000,0.000000003
1782727127.882174492,-4.225361862,0.076915159,8.641236196,0.003980756,-0.010164063,0.002172768,-0.010536588,0.000308139,-0.002166314,-0.003475320,0.004349619,-0.000882260,0.973200864,-0.003922712,0.229916647,0.001739627,0.011530174,-0.005529360,-0.004561726,0.000000005,-0.000000000,0.000000003
1782727127.887627840,-4.275788737,-0.045550109,8.614822118,0.002915494,-0.006968270,0.005368561,-0.010554654,0.000333077,-0.002173836,-0.003150272,0.004796365,-0.001876375,0.973202641,-0.003938921,0.229908639,0.001766837,0.011530174,-0.005529360,-0.004561726,0.000000005,-0.000000000,0.000000003
1782727127.892163277,-4.376642487,-0.103180823,8.662847713,-0.000280302,-0.006968270,0.006433826,-0.010568970,0.000354749,-0.002183767,-0.003162924,0.004760261,-0.002503011,0.973203258,-0.003955998,0.229905516,0.001795266,0.011530174,-0.005529360,-0.004561726,0.000000005,-0.000000000,0.000000003
1782727127.897628069,-4.419865523,-0.151206418,8.751695065,0.001850229,-0.010164063,0.003238030,-0.010586800,0.000379867,-0.002198108,-0.003362181,0.004432160,-0.002745445,0.973205002,-0.003978653,0.229897489,0.001827038,0.011530174,-0.005529360,-0.004561726,0.000000005,-0.000000000,0.000000003
1782727127.902049303,-4.343024571,-0.177620487,8.799720660,0.002915494,0.000488581,-0.002088290,-0.010601572,0.000398520,-0.002210153,-0.003320498,0.004006018,-0.002703112,0.973204549,-0.003995725,0.229898985,0.001842732,0.011530174,-0.005529360,-0.004561726,0.000000005,-0.000000000,0.000000003
1782727127.907803297,-4.143718351,-0.237652481,8.706070749,0.006111287,-0.004837741,-0.009545140,-0.010618640,0.000419267,-0.002226903,-0.002612064,0.003205196,-0.003119179,0.973202256,-0.004016219,0.229908327,0.001843821,0.011530174,-0.005529360,-0.004561726,0.000000005,-0.000000000,0.000000003
1782727127.911944628,-4.143718351,-0.237652481,8.706070749,0.006111287,-0.004837741,-0.009545140,-0.010627816,0.000431090,-0.002241181,-0.001819116,0.002504720,-0.003775847,0.973201901,-0.004029514,0.229909658,0.001836352,0.011530174,-0.005529360,-0.004561726,0.000000005,-0.000000000,0.000000003
1782727127.917729378,-4.311807934,-0.350512648,8.677255392,0.024220783,-0.004837741,-0.010610409,-0.010636495,0.000441800,-0.002265256,-0.001181640,0.001198013,-0.004547788,0.973201512,-0.004022952,0.229911560,0.001818399,0.011530174,-0.005529360,-0.004561726,0.000000005,-0.000000000,0.000000003
1782727127.922132015,-4.311807934,-0.350512648,8.677255392,0.024220783,-0.004837741,-0.010610409,-0.010641417,0.000444332,-0.002286328,-0.001054353,-0.000047726,-0.005024740,0.973201299,-0.003998828,0.229913039,0.001799012,0.011530174,-0.005529360,-0.004561726,0.000000005,-0.000000000,0.000000003
1782727127.927619219,-4.525521832,-0.264066558,8.634032356,0.023155522,-0.000576683,-0.014871463,-0.010648353,0.000440450,-0.002315106,-0.001473677,-0.001367255,-0.005464526,0.973199691,-0.003971539,0.229920544,0.001769473,0.011530174,-0.005529360,-0.004561726,0.000000005,-0.000000000,0.000000003
1782727127.931979179,-4.542330791,-0.240053760,8.862153933,0.023155522,-0.000576683,-0.014871463,-0.010656092,0.000432731,-0.002338421,-0.002076288,-0.002173332,-0.005230293,0.973197349,-0.003952062,0.229931007,0.001741730,0.011530174,-0.005529360,-0.004561726,0.000000005,-0.000000000,0.000000003
1782727127.937803745,-4.489502636,0.129743313,8.852548814,0.026351314,-0.003772477,-0.011675671,-0.010669442,0.000420285,-0.002366476,-0.002507580,-0.002100407,-0.004403142,0.973195298,-0.003920435,0.229940482,0.001708146,0.011530174,-0.005529360,-0.004561726,0.000000005,-0.000000000,0.000000003
1782727127.942090034,-4.489502636,0.129743313,8.852548814,0.026351314,-0.003772477,-0.011675671,-0.010680681,0.000413092,-0.002384204,-0.002736637,-0.001256065,-0.003868911,0.973194582,-0.003893034,0.229944140,0.001685990,0.011530174,-0.005529360,-0.004561726,0.000000005,-0.000000000,0.000000003
1782727127.947726011,-4.439075761,0.201781715,8.658045154,0.014633399,-0.008033535,-0.004218820,-0.010697289,0.000409695,-0.002405594,-0.003157151,0.000050765,-0.003721523,0.973194938,-0.003870648,0.229943121,0.001670902,0.011530174,-0.005529360,-0.004561726,0.000000005,-0.000000000,0.000000003
1782727127.952105045,-4.439075761,0.201781715,8.658045154,0.014633399,-0.008033535,-0.004218820,-0.010712034,0.000412477,-0.002422584,-0.003576997,0.001219948,-0.004038301,0.973196224,-0.003863854,0.229937799,0.001670092,0.011530174,-0.005529360,-0.004561726,0.000000005,-0.000000000,0.000000003
1782727127.957870483,-4.424668082,0.084118998,8.706070749,-0.002410829,-0.016555650,-0.004218820,-0.010733966,0.000422978,-0.002446759,-0.004031174,0.002422828,-0.004347919,0.973200646,-0.003878796,0.229918797,0.001674721,0.011530174,-0.005529360,-0.004561726,0.000000005,-0.000000000,0.000000003
1782727127.962162733,-4.424668082,0.084118998,8.706070749,-0.002410829,-0.016555650,-0.004218820,-0.010751838,0.000434764,-0.002465745,-0.004296256,0.003068939,-0.004498426,0.973205968,-0.003907705,0.229895720,0.001682408,0.011530174,-0.005529360,-0.004561726,0.000000005,-0.000000000,0.000000003
1782727127.967654467,-4.453483439,0.110533075,8.859752654,0.007176552,-0.010164063,-0.001023028,-0.010776046,0.000454103,-0.002489846,-0.004520072,0.003973705,-0.004278757,0.973210804,-0.003930888,0.229874773,0.001693452,0.011530174,-0.005529360,-0.004561726,0.000000005,-0.000000000,0.000000003
1782727127.971856833,-4.453483439,0.110533075,8.859752654,0.007176552,-0.010164063,-0.001023028,-0.010795214,0.000472379,-0.002506811,-0.004602115,0.004724576,-0.003795185,0.973212994,-0.003938065,0.229865310,0.001702830,0.011530174,-0.005529360,-0.004561726,0.000000005,-0.000000000,0.000000003
1782727127.977417707,-4.186941386,0.036093403,8.866956493,0.002915494,-0.003772477,0.005368561,-0.010819238,0.000500845,-0.002527004,-0.004038340,0.005513375,-0.003467549,0.973213810,-0.003951299,0.229861459,0.001725213,0.011530174,-0.005529360,-0.004561726,0.000000005,-0.000000000,0.000000003
1782727127.982100964,-4.191743946,-0.023938591,8.751695065,0.010372344,-0.003772477,0.008564353,-0.010836016,0.000527481,-0.002543764,-0.003126615,0.005861500,-0.003689964,0.973212772,-0.003956237,0.229865550,0.001754098,0.011530174,-0.005529360,-0.004561726,0.000000005,-0.000000000,0.000000003
1782727127.987923622,-4.167731148,-0.175219207,8.701268190,-0.000280302,-0.009098799,0.005368561,-0.010851395,0.000561069,-0.002567371,-0.002155906,0.005675412,-0.004418650,0.973213245,-0.003966889,0.229863081,0.001791111,0.011530174,-0.005529360,-0.004561726,0.000000005,-0.000000000,0.000000003
1782727127.992052317,-4.167731148,-0.175219207,8.701268190,-0.000280302,-0.009098799,0.005368561,-0.010858877,0.000583584,-0.002586915,-0.001468734,0.005231414,-0.005048441,0.973214804,-0.003985892,0.229855948,0.001816695,0.011530174,-0.005529360,-0.004561726,0.000000005,-0.000000000,0.000000003
1782727127.997685432,-4.400655285,-0.225646082,8.701268190,0.005046021,-0.003772477,-0.006349348,-0.010866161,0.000610950,-0.002616944,-0.001117366,0.004484461,-0.005613182,0.973215267,-0.004008325,0.229853462,0.001833788,0.011530174,-0.005529360,-0.004561726,0.000000005,-0.000000000,0.000000003
1782727128.002122641,-4.400655285,-0.225646082,8.701268190,0.005046021,-0.003772477,-0.006349348,-0.010871528,0.000629295,-0.002642323,-0.001301810,0.003784588,-0.005826022,0.973214321,-0.004023244,0.229857213,0.001833219,0.011530174,-0.005529360,-0.004561726,0.000000005,-0.000000000,0.000000003
1782727128.007870197,-4.340623291,-0.199232004,8.842943695,0.012502875,0.001553846,-0.009545140,-0.010878727,0.000648675,-0.002675777,-0.001203283,0.002959064,-0.005815309,0.973211387,-0.004033211,0.229869522,0.001825519,0.011530174,-0.005529360,-0.004561726,0.000000005,-0.000000000,0.000000003
1782727128.012067795,-4.340623291,-0.199232004,8.842943695,0.012502875,0.001553846,-0.009545140,-0.010883110,0.000659953,-0.002699732,-0.000884700,0.002414631,-0.005598341,0.973207997,-0.004033656,0.229883951,0.001814811,0.011530174,-0.005529360,-0.004561726,0.000000005,-0.000000000,0.000000003
1782727128.017842531,-4.393451446,-0.208837123,8.682057952,0.013568137,-0.009098799,-0.009545140,-0.010887945,0.000671643,-0.002732201,-0.000789993,0.001633907,-0.005646823,0.973206874,-0.004032743,0.229888838,0.001799788,0.011530174,-0.005529360,-0.004561726,0.000000005,-0.000000000,0.000000003
1782727128.022100210,-4.393451446,-0.208837123,8.682057952,0.013568137,-0.009098799,-0.009545140,-0.010891702,0.000677324,-0.002756864,-0.000974531,0.001034753,-0.005938390,0.973208658,-0.004030946,0.229881408,0.001788497,0.011530174,-0.005529360,-0.004561726,0.000000005,-0.000000000,0.000000003
1782727128.027816772,-4.768051088,-0.122391061,8.838141136,0.021024991,-0.002707212,-0.013806202,-0.010900151,0.000681651,-0.002789426,-0.001981712,0.000478914,-0.005453542,0.973209006,-0.004019578,0.229880316,0.001764923,0.011530174,-0.005529360,-0.004561726,0.000000005,-0.000000000,0.000000003
1782727128.032002211,-4.768051088,-0.122391061,8.838141136,0.021024991,-0.002707212,-0.013806202,-0.010911151,0.000683184,-0.002810165,-0.003274538,0.000253733,-0.004456933,0.973207762,-0.004004698,0.229886021,0.001741504,0.011530174,-0.005529360,-0.004561726,0.000000005,-0.000000000,0.000000003
1782727128.037776947,-4.554337189,0.216189394,8.751695065,0.017829198,-0.006968270,-0.005284086,-0.010933954,0.000686567,-0.002833394,-0.004622978,0.000917884,-0.003588035,0.973207418,-0.003985819,0.229887946,0.001722251,0.011530174,-0.005529360,-0.004561726,0.000000005,-0.000000000,0.000000003
1782727128.041951895,-4.554337189,0.216189394,8.751695065,0.017829198,-0.006968270,-0.005284086,-0.010954634,0.000692873,-0.002847827,-0.005283527,0.002103026,-0.003325753,0.973208164,-0.003973363,0.229885040,0.001717772,0.011530174,-0.005529360,-0.004561726,0.000000005,-0.000000000,0.000000003
1782727128.047894955,-4.290196416,0.317043125,8.778109142,0.009307079,-0.005903006,-0.002088290,-0.010986644,0.000711278,-0.002867323,-0.005488624,0.004090851,-0.003235474,0.973208803,-0.003966867,0.229882439,0.001718923,0.011530174,-0.005529360,-0.004561726,0.000000005,-0.000000000,0.000000003
1782727128.051915884,-4.290196416,0.317043125,8.778109142,0.009307079,-0.005903006,-0.002088290,-0.011007992,0.000730841,-0.002880595,-0.005129836,0.005639923,-0.003365935,0.973208949,-0.003970072,0.229881720,0.001724793,0.011530174,-0.005529360,-0.004561726,0.000000005,-0.000000000,0.000000003
1782727128.057820082,-4.355030969,-0.043148829,8.665248993,-0.002410829,-0.014425121,0.003238030,-0.011037658,0.000767712,-0.002901639,-0.004919353,0.006849790,-0.003762463,0.973211973,-0.003989783,0.229868424,0.001745090,0.011530174,-0.005529360,-0.004561726,0.000000005,-0.000000000,0.000000003
1782727128.062296867,-4.355030969,-0.043148829,8.665248993,-0.002410829,-0.014425121,0.003238030,-0.011059861,0.000798625,-0.002919504,-0.005000081,0.006960275,-0.004218505,0.973216394,-0.004016104,0.229849060,0.001769333,0.011530174,-0.005529360,-0.004561726,0.000000005,-0.000000000,0.000000003
1782727128.067829847,-4.508712874,-0.115187222,8.859752654,0.007176552,-0.009098799,0.007499088,-0.011088191,0.000836976,-0.002942542,-0.005240156,0.006902604,-0.004109315,0.973220206,-0.004034387,0.229832345,0.001801955,0.011530174,-0.005529360,-0.004561726,0.000000005,-0.000000000,0.000000003
1782727128.071786404,-4.508712874,-0.115187222,8.859752654,0.007176552,-0.009098799,0.007499088,-0.011109460,0.000863928,-0.002957695,-0.005511372,0.006721444,-0.003550108,0.973221751,-0.004037273,0.229825553,0.001827184,0.011530174,-0.005529360,-0.004561726,0.000000005,-0.000000000,0.000000003
1782727128.077864408,-4.251775940,-0.131996180,8.893370570,0.000784963,-0.000576683,0.000042237,-0.011141962,0.000903791,-0.002977445,-0.005183397,0.006395415,-0.002948640,0.973221129,-0.004053785,0.229827659,0.001857092,0.011530174,-0.005529360,-0.004561726,0.000000005,-0.000000000,0.000000003
1782727128.082296848,-4.251775940,-0.131996180,8.893370570,0.000784963,-0.000576683,0.000042237,-0.011163202,0.000931535,-0.002989959,-0.004400443,0.006123551,-0.002697869,0.973218490,-0.004074637,0.229838338,0.001872451,0.011530174,-0.005529360,-0.004561726,0.000000005,-0.000000000,0.000000003
1782727128.087934256,-4.208552904,-0.297684475,8.583605481,0.006111287,0.001553846,-0.004218820,-0.011185983,0.000963750,-0.003006614,-0.003681816,0.005305235,-0.003210984,0.973214485,-0.004095237,0.229854832,0.001884403,0.011530174,-0.005529360,-0.004561726,0.000000005,-0.000000000,0.000000003
1782727128.092136860,-4.208552904,-0.297684475,8.583605481,0.006111287,0.001553846,-0.004218820,-0.011200765,0.000984022,-0.003022215,-0.003352929,0.004342258,-0.004213766,0.973211016,-0.004106181,0.229869299,0.001887661,0.011530174,-0.005529360,-0.004561726,0.000000005,-0.000000000,0.000000003
1782727128.097785473,-4.554337189,-0.280875516,8.614822118,0.009307079,-0.010164063,-0.011675671,-0.011220811,0.001005030,-0.003048368,-0.003744730,0.003095978,-0.005046066,0.973210195,-0.004118888,0.229872604,0.001880822,0.011530174,-0.005529360,-0.004561726,0.000000005,-0.000000000,0.000000003
1782727128.101911545,-4.554337189,-0.280875516,8.614822118,0.009307079,-0.010164063,-0.011675671,-0.011238112,0.001015998,-0.003069666,-0.004641072,0.002220484,-0.005277489,0.973212401,-0.004126707,0.229863230,0.001867632,0.011530174,-0.005529360,-0.004561726,0.000000005,-0.000000000,0.000000003
1782727128.107807636,-4.566343588,-0.146403859,8.943797445,0.022090252,0.002619110,-0.015936732,-0.011268071,0.001026596,-0.003099162,-0.005521350,0.001374586,-0.004727870,0.973211312,-0.004121022,0.229868181,0.001838263,0.011530174,-0.005529360,-0.004561726,0.000000005,-0.000000000,0.000000003
1782727128.111993551,-4.566343588,-0.146403859,8.943797445,0.022090252,0.002619110,-0.015936732,-0.011291893,0.001031693,-0.003116828,-0.005860862,0.001060801,-0.003712695,0.973207526,-0.004105016,0.229884721,0.001809942,0.011530174,-0.005529360,-0.004561726,0.000000005,-0.000000000,0.000000003
1782727128.117824078,-4.367037368,-0.002327073,8.691663071,0.026351314,-0.002707212,-0.006349348,-0.011326889,0.001037804,-0.003137036,-0.006143477,0.001035407,-0.003218980,0.973204035,-0.004073450,0.229900271,0.001782700,0.011530174,-0.005529360,-0.004561726,0.000000005,-0.000000000,0.000000003
1782727128.121991158,-4.367037368,-0.002327073,8.691663071,0.026351314,-0.002707212,-0.006349348,-0.011352629,0.001042694,-0.003151085,-0.006210283,0.001311405,-0.003523851,0.973202815,-0.004044264,0.229906034,0.001771951,0.011530174,-0.005529360,-0.004561726,0.000000005,-0.000000000,0.000000003
1782727128.127743483,-4.700815255,0.038494683,8.809325779,0.019959722,-0.008033535,-0.007414613,-0.011390653,0.001051667,-0.003170462,-0.007010130,0.001808200,-0.003213267,0.973202857,-0.004013259,0.229906511,0.001757768,0.011530174,-0.005529360,-0.004561726,0.000000005,-0.000000000,0.000000003
1782727128.132049561,-4.700815255,0.038494683,8.809325779,0.019959722,-0.008033535,-0.007414613,-0.011423270,0.001060443,-0.003182619,-0.008139097,0.002267899,-0.002433248,0.973204180,-0.003996999,0.229901271,0.001747639,0.011530174,-0.005529360,-0.004561726,0.000000005,-0.000000000,0.000000003
1782727128.137836933,-4.556738469,0.199380436,8.838141136,0.014633399,-0.008033535,-0.006349348,-0.011473587,0.001076703,-0.003194001,-0.009249530,0.003351288,-0.001500141,0.973205924,-0.003982291,0.229894221,0.001737298,0.011530174,-0.005529360,-0.004561726,0.000000005,-0.000000000,0.000000003
1782727128.141939163,-4.556738469,0.199380436,8.838141136,0.014633399,-0.008033535,-0.006349348,0.006748266,-0.002692013,-0.002673446,0.019067876,-0.014476031,0.001155846,0.973093484,-0.003622574,0.230381363,0.000612638,0.011529845,-0.005531997,-0.004557160,0.000011151,0.000033682,-0.000003380
1782727128.147831440,-4.213355464,0.252208590,8.802121939,0.005046021,-0.001641948,0.007499088,0.004181653,-0.002025810,-0.003564491,0.010698819,-0.010218618,-0.002339649,0.973086494,-0.003257776,0.230416911,0.000330284,0.011527652,-0.005532179,-0.004556097,0.000017743,0.000029029,0.000008893
1782727128.151951075,-4.213355464,0.252208590,8.802121939,0.005046021,-0.001641948,0.007499088,0.004227248,-0.002065273,-0.003574510,0.011436666,-0.008939799,-0.002524214,0.973084596,-0.003265049,0.230424785,0.000357497,0.011527652,-0.005532179,-0.004556097,0.000017743,0.000029029,0.000008893
1782727128.157803297,-4.254177219,-0.091174424,8.691663071,-0.005606622,-0.011229329,0.007499088,0.004296513,-0.002115216,-0.003590719,0.012234981,-0.008128128,-0.003015521,0.973085078,-0.003290541,0.230422315,0.000399793,0.011527652,-0.005532179,-0.004556097,0.000017743,0.000029029,0.000008893
1782727128.162224531,-4.254177219,-0.091174424,8.691663071,-0.005606622,-0.011229329,0.007499088,0.004351522,-0.002151474,-0.003605255,0.012648626,-0.008273634,-0.003559736,0.973087844,-0.003321253,0.230410132,0.000434494,0.011527652,-0.005532179,-0.004556097,0.000017743,0.000029029,0.000008893
1782727128.167859554,-4.417464243,-0.264066558,8.665248993,-0.001345564,-0.006968270,-0.001023028,0.004423030,-0.002199983,-0.003626866,0.012731372,-0.008943323,-0.004110483,0.973090008,-0.003357325,0.230400407,0.000465637,0.011527652,-0.005532179,-0.004556097,0.000017743,0.000029029,0.000008893
1782727128.172029018,-4.417464243,-0.264066558,8.665248993,-0.001345564,-0.006968270,-0.001023028,0.004475556,-0.002239053,-0.003644633,0.012464316,-0.009797751,-0.004412259,0.973090604,-0.003381741,0.230397506,0.000478997,0.011527652,-0.005532179,-0.004556097,0.000017743,0.000029029,0.000008893
1782727128.177805901,-4.290196416,-0.273671677,8.830937297,0.012502875,0.003684375,-0.001023028,0.004548065,-0.002299141,-0.003670570,0.012638861,-0.011005069,-0.004567250,0.973087952,-0.003396116,0.230408467,0.000492849,0.011527652,-0.005532179,-0.004556097,0.000017743,0.000029029,0.000008893
1782727128.182346821,-4.290196416,-0.273671677,8.830937297,0.017829198,0.000488581,0.001107503,0.004606742,-0.002351315,-0.003691117,0.013204640,-0.011974559,-0.004482321,0.973083989,-0.003385681,0.230425339,0.000501046,0.011527652,-0.005532179,-0.004556097,0.000017743,0.000029029,0.000008893
1782727128.187538862,-4.254177219,-0.175219207,8.662847713,0.017829198,0.000488581,-0.008479878,0.004676692,-0.002415714,-0.003715263,0.013740362,-0.012832098,-0.004818830,0.973080441,-0.003369250,0.230440564,0.000499421,0.011527652,-0.005532179,-0.004556097,0.000017743,0.000029029,0.000008893
1782727128.192150354,-4.254177219,-0.175219207,8.662847713,0.017829198,0.000488581,-0.008479878,0.004740924,-0.002476130,-0.003739062,0.014117239,-0.013370232,-0.005502817,0.973077296,-0.003357203,0.230454049,0.000487223,0.011527652,-0.005532179,-0.004556097,0.000017743,0.000029029,0.000008893
1782727128.197962761,-4.614369183,-0.156008969,8.715675868,0.015698668,-0.003772477,-0.013806202,0.004821844,-0.002555648,-0.003771790,0.013726614,-0.013991560,-0.005758568,0.973074750,-0.003346812,0.230464994,0.000465050,0.011527652,-0.005532179,-0.004556097,0.000017743,0.000029029,0.000008893
1782727128.202118158,-4.614369183,-0.156008969,8.715675868,0.015698668,-0.003772477,-0.013806202,0.004877016,-0.002614626,-0.003795198,0.012827880,-0.014394521,-0.005507894,0.973073945,-0.003342810,0.230468491,0.000444339,0.011527652,-0.005532179,-0.004556097,0.000017743,0.000029029,0.000008893
1782727128.207653761,-4.405457844,0.043297242,8.886166731,0.024220783,-0.001641948,-0.008479878,0.004946728,-0.002694264,-0.003824324,0.012358601,-0.014378284,-0.005015033,0.973072229,-0.003324306,0.230476049,0.000421194,0.011527652,-0.005532179,-0.004556097,0.000017743,0.000029029,0.000008893
1782727128.212039709,-4.405457844,0.043297242,8.886166731,0.024220783,-0.001641948,-0.008479878,0.005001382,-0.002756339,-0.003845187,0.012563674,-0.013928025,-0.004498599,0.973070358,-0.003299206,0.230484333,0.000406377,0.011527652,-0.005532179,-0.004556097,0.000017743,0.000029029,0.000008893
1782727128.217836618,-4.294998975,0.129743313,8.905376969,0.015698668,-0.005903006,-0.005284086,0.005075899,-0.002834633,-0.003869563,0.013145868,-0.013084409,-0.003911410,0.973069266,-0.003276980,0.230489284,0.000394167,0.011527652,-0.005532179,-0.004556097,0.000017743,0.000029029,0.000008893
1782727128.222155571,-4.294998975,0.129743313,8.905376969,0.015698668,-0.005903006,-0.005284086,0.005134112,-0.002889385,-0.003885665,0.013810939,-0.012269744,-0.003544995,0.973069480,-0.003268578,0.230488503,0.000390564,0.011527652,-0.005532179,-0.004556097,0.000017743,0.000029029,0.000008893
1782727128.227694273,-4.499107755,0.124940754,8.607618279,0.016763929,-0.010164063,0.000042237,0.005210543,-0.002954505,-0.003905336,0.013788048,-0.011244800,-0.003558402,0.973071117,-0.003254664,0.230481785,0.000392799,0.011527652,-0.005532179,-0.004556097,0.000017743,0.000029029,0.000008893
1782727128.232152224,-4.499107755,0.124940754,8.607618279,0.016763929,-0.010164063,0.000042237,0.005270397,-0.003002830,-0.003922091,0.013064435,-0.010435853,-0.003958216,0.973073531,-0.003240941,0.230471777,0.000400116,0.011527652,-0.005532179,-0.004556097,0.000017743,0.000029029,0.000008893
1782727128.237703562,-4.503910314,0.050501081,8.847746255,0.008241814,-0.009098799,0.000042237,0.005341215,-0.003058531,-0.003943773,0.012449604,-0.009631680,-0.003853152,0.973076157,-0.003235361,0.230460747,0.000411949,0.011527652,-0.005532179,-0.004556097,0.000017743,0.000029029,0.000008893
1782727128.241950750,-4.503910314,0.050501081,8.847746255,0.008241814,-0.009098799,0.000042237,0.005393558,-0.003098460,-0.003958987,0.012198525,-0.009171041,-0.003311480,0.973077876,-0.003239897,0.230453406,0.000423084,0.011527652,-0.005532179,-0.004556097,0.000017743,0.000029029,0.000008893
1782727128.247801065,-4.275788737,0.057704921,8.818930898,0.003980756,-0.003772477,0.005368561,0.001495804,-0.002783268,-0.003524092,-0.000770570,-0.007352848,-0.000882222,0.973142854,-0.004104369,0.230160961,0.001439603,0.011533415,-0.005530524,-0.004560293,0.000040004,0.000029543,0.000014593
1782727128.252060175,-4.275788737,0.057704921,8.818930898,0.003980756,-0.003772477,0.005368561,0.001493647,-0.002813428,-0.003527851,-0.000242437,-0.006809438,-0.000883357,0.973141895,-0.004115160,0.230164668,0.001463865,0.011533415,-0.005530524,-0.004560293,0.000040004,0.000029543,0.000014593
1782727128.257831573,-4.045265880,-0.100779543,8.480350452,0.002915494,-0.003772477,0.002172768,0.001494774,-0.002851942,-0.003536325,0.000633022,-0.006537070,-0.002053047,0.973140596,-0.004132339,0.230169670,0.001492610,0.011533415,-0.005530524,-0.004560293,0.000040004,0.000029543,0.000014593
1782727128.262177944,-4.045265880,-0.100779543,8.480350452,0.002915494,-0.003772477,0.002172768,0.001499219,-0.002880668,-0.003549074,0.001412578,-0.006681410,-0.003813635,0.973139617,-0.004147202,0.230173420,0.001511144,0.011533415,-0.005530524,-0.004560293,0.000040004,0.000029543,0.000014593
1782727128.267763615,-4.331018172,-0.391334403,8.624427237,0.001850229,-0.013359858,-0.006349348,0.001508427,-0.002920759,-0.003574675,0.001884245,-0.007673526,-0.005352937,0.973141451,-0.004170470,0.230165160,0.001523780,0.011533415,-0.005530524,-0.004560293,0.000040004,0.000029543,0.000014593
1782727128.272139788,-4.331018172,-0.391334403,8.624427237,0.001850229,-0.013359858,-0.006349348,0.001516571,-0.002957423,-0.003599499,0.001837668,-0.009082681,-0.005992215,0.973145312,-0.004191963,0.230148440,0.001524918,0.011533415,-0.005530524,-0.004560293,0.000040004,0.000029543,0.000014593
1782727128.276938438,-4.503910314,-0.422551040,8.876561612,0.013568137,0.001553846,-0.007414613,0.001525027,-0.003004880,-0.003628191,0.001686963,-0.010696836,-0.005965951,0.973145487,-0.004202173,0.230147533,0.001521613,0.011533415,-0.005530524,-0.004560293,0.000040004,0.000029543,0.000014593
1782727128.282302141,-4.429470642,-0.129594901,8.758898904,0.015698668,0.000488581,-0.013806202,0.001533420,-0.003065203,-0.003658944,0.001442357,-0.011796212,-0.005501147,0.973141503,-0.004197844,0.230164576,0.001503836,0.011533415,-0.005530524,-0.004560293,0.000040004,0.000029543,0.000014593
1782727128.287551880,-4.299801535,-0.093575704,8.857351374,0.025286045,0.005814903,-0.014871463,0.001541556,-0.003127691,-0.003687395,0.001657475,-0.012009648,-0.005337779,0.973136394,-0.004180901,0.230186681,0.001473350,0.011533415,-0.005530524,-0.004560293,0.000040004,0.000029543,0.000014593
1782727128.291996241,-4.299801535,-0.093575704,8.857351374,0.025286045,0.005814903,-0.014871463,0.001550122,-0.003181288,-0.003710664,0.002197015,-0.012109622,-0.005133609,0.973130751,-0.004156473,0.230211165,0.001443912,0.011533415,-0.005530524,-0.004560293,0.000040004,0.000029543,0.000014593
1782727128.297834396,-4.527923112,0.007278046,8.641236196,0.015698668,-0.011229329,-0.009545140,0.001562453,-0.003251532,-0.003740634,0.002027335,-0.011954197,-0.005133190,0.973128994,-0.004136175,0.230219129,0.001416132,0.011533415,-0.005530524,-0.004560293,0.000040004,0.000029543,0.000014593
1782727128.302083015,-4.527923112,0.007278046,8.641236196,0.015698668,-0.011229329,-0.009545140,0.001569442,-0.003301635,-0.003762856,0.001262924,-0.011631507,-0.005327762,0.973131833,-0.004129985,0.230207317,0.001403840,0.011533415,-0.005530524,-0.004560293,0.000040004,0.000029543,0.000014593
1782727128.307898283,-4.518317993,0.110533075,8.830937297,0.015698668,-0.014425121,-0.009545140,0.001574525,-0.003367106,-0.003793222,0.000484931,-0.010885278,-0.005115739,0.973136787,-0.004121507,0.230186628,0.001387035,0.011533415,-0.005530524,-0.004560293,0.000040004,0.000029543,0.000014593
1782727128.311987877,-4.518317993,0.110533075,8.830937297,0.015698668,-0.014425121,-0.009545140,0.001575775,-0.003410111,-0.003813150,0.000126710,-0.010146234,-0.004630219,0.973141022,-0.004115539,0.230168899,0.001375230,0.011533415,-0.005530524,-0.004560293,0.000040004,0.000029543,0.000014593
1782727128.317632914,-4.290196416,0.177768918,8.890969291,0.017829198,-0.008033535,0.002172768,0.001576926,-0.003463971,-0.003837787,0.000281149,-0.008935973,-0.004098359,0.973144782,-0.004100583,0.230153276,0.001374299,0.011533415,-0.005530524,-0.004560293,0.000040004,0.000029543,0.000014593
1782727128.322112322,-4.290196416,0.177768918,8.890969291,0.017829198,-0.008033535,0.002172768,0.001579616,-0.003501511,-0.003855446,0.000919533,-0.007825177,-0.003786045,0.973146109,-0.004083382,0.230147902,0.001385752,0.011533415,-0.005530524,-0.004560293,0.000040004,0.000029543,0.000014593
1782727128.327723742,-4.460687279,0.069711319,8.694064350,0.006111287,-0.011229329,0.004303295,0.001585125,-0.003542386,-0.003876371,0.001044214,-0.006743169,-0.003672201,0.973148731,-0.004077138,0.230136796,0.001406809,0.011533415,-0.005530524,-0.004560293,0.000040004,0.000029543,0.000014593
1782727128.332049847,-4.460687279,0.069711319,8.694064350,0.006111287,-0.011229329,0.004303295,0.001588725,-0.003570267,-0.003892530,0.000619873,-0.006146560,-0.003798342,0.973151493,-0.004084122,0.230124862,0.001428216,0.011533415,-0.005530524,-0.004560293,0.000040004,0.000029543,0.000014593
1782727128.337808847,-4.352629690,-0.074365466,8.658045154,0.000784963,-0.002707212,0.003238030,0.001591340,-0.003604571,-0.003915548,0.000288189,-0.005766702,-0.004195343,0.973152316,-0.004101252,0.230120898,0.001456936,0.011533415,-0.005530524,-0.004560293,0.000040004,0.000029543,0.000014593
1782727128.341954947,-4.352629690,-0.074365466,8.658045154,0.000784963,-0.002707212,0.003238030,0.001592389,-0.003628531,-0.003933877,0.000218130,-0.005791311,-0.004646064,0.973150853,-0.004119224,0.230126627,0.001477772,0.011533415,-0.005530524,-0.004560293,0.000040004,0.000029543,0.000014593
1782727128.347635984,-4.249374660,-0.093575704,8.838141136,0.001850229,-0.008033535,0.005368561,0.001594752,-0.003661665,-0.003961099,0.000613824,-0.005873204,-0.004937252,0.973150591,-0.004141670,0.230127131,0.001508949,0.011533415,-0.005530524,-0.004560293,0.000040004,0.000029543,0.000014593
1782727128.352015257,-4.249374660,-0.093575704,8.838141136,0.001850229,-0.008033535,0.005368561,0.001598937,-0.003687605,-0.003982661,0.001297365,-0.005973879,-0.004910102,0.973151732,-0.004157292,0.230121855,0.001535008,0.011533415,-0.005530524,-0.004560293,0.000040004,0.000029543,0.000014593
1782727128.357796192,-4.297400255,-0.208837123,8.612420839,0.008241814,-0.009098799,0.003238030,0.001607844,-0.003723502,-0.004012441,0.001784060,-0.006445190,-0.005392926,0.973153633,-0.004169631,0.230113394,0.001564291,0.011533415,-0.005530524,-0.004560293,0.000040004,0.000029543,0.000014593
1782727128.362140656,-4.155724749,-0.336104969,8.564395243,0.009307079,-0.010164063,-0.002088290,0.001616210,-0.003753428,-0.004038003,0.002067293,-0.007331187,-0.006374630,0.973155640,-0.004172882,0.230104762,0.001576563,0.011533415,-0.005530524,-0.004560293,0.000040004,0.000029543,0.000014593
1782727128.367659569,-4.307005374,-0.379328005,8.754096344,0.013568137,-0.003772477,-0.008479878,0.001629035,-0.003798282,-0.004075618,0.002580396,-0.008923597,-0.007256830,0.973156555,-0.004173593,0.230100892,0.001574697,0.011533415,-0.005530524,-0.004560293,0.000040004,0.000029543,0.000014593
1782727128.372021198,-4.307005374,-0.379328005,8.754096344,0.013568137,-0.003772477,-0.008479878,0.001640937,-0.003840147,-0.004107660,0.002876962,-0.010273079,-0.007435706,0.973155705,-0.004171248,0.230104595,0.001565341,0.011533415,-0.005530524,-0.004560293,0.000040004,0.000029543,0.000014593
1782727128.377766132,-4.566343588,-0.223244802,8.900574410,0.021024991,-0.003772477,-0.012740932,0.001657210,-0.003902977,-0.004149025,0.002788236,-0.011600138,-0.006964830,0.973154639,-0.004159144,0.230109462,0.001544599,0.011533415,-0.005530524,-0.004560293,0.000040004,0.000029543,0.000014593
1782727128.382047415,-4.566343588,-0.223244802,8.900574410,0.021024991,-0.003772477,-0.012740932,0.001668240,-0.003954039,-0.004176965,0.002364821,-0.012253702,-0.006087418,0.973153884,-0.004143407,0.230113083,0.001522866,0.011533415,-0.005530524,-0.004560293,0.000040004,0.000029543,0.000014593
1782727128.387727022,-4.580751267,0.055303641,8.931791046,0.023155522,0.005814903,-0.015936732,0.001680080,-0.004023854,-0.004207973,0.001804469,-0.012330586,-0.004831656,0.973149768,-0.004120651,0.230131120,0.001488866,0.011533415,-0.005530524,-0.004560293,0.000040004,0.000029543,0.000014593
1782727128.392028809,-4.580751267,0.055303641,8.931791046,0.023155522,0.005814903,-0.015936732,0.001686933,-0.004075735,-0.004226563,0.001381675,-0.011790107,-0.003810982,0.973144291,-0.004101992,0.230154803,0.001459201,0.011533415,-0.005530524,-0.004560293,0.000040004,0.000029543,0.000014593
1782727128.397777319,-4.379043767,0.067310040,8.525974767,0.017829198,-0.013359858,-0.008479878,0.001693241,-0.004141367,-0.004248294,0.000812981,-0.011044345,-0.003749791,0.973143265,-0.004082000,0.230159668,0.001431861,0.011533415,-0.005530524,-0.004560293,0.000040004,0.000029543,0.000014593
1782727128.402130127,-4.568744868,0.076915159,8.809325779,0.015698668,-0.013359858,-0.009545140,0.001695630,-0.004188115,-0.004265061,0.000284677,-0.010435374,-0.003953801,0.973147247,-0.004073128,0.230143062,0.001419881,0.011533415,-0.005530524,-0.004560293,0.000040004,0.000029543,0.000014593
1782727128.407794952,-4.611967904,0.100927956,8.828536017,0.014633399,-0.015490387,-0.006349348,0.001694703,-0.004244698,-0.004285205,-0.000612125,-0.009541406,-0.003158342,0.973153100,-0.004065287,0.230118521,0.001408280,0.011533415,-0.005530524,-0.004560293,0.000040004,0.000029543,0.000014593
1782727128.412161827,-4.611967904,0.100927956,8.828536017,0.014633399,-0.015490387,-0.006349348,0.001690373,-0.004284745,-0.004297485,-0.001371167,-0.008799936,-0.002465778,0.973158137,-0.004059568,0.230097352,0.001403010,0.011533415,-0.005530524,-0.004560293,0.000040004,0.000029543,0.000014593
1782727128.417901993,-4.458285999,0.156157400,8.876561612,0.007176552,-0.004837741,-0.003153555,0.001680941,-0.004332001,-0.004309243,-0.001915062,-0.007665019,-0.001630887,0.973161191,-0.004061431,0.230084405,0.001402945,0.011533415,-0.005530524,-0.004560293,0.000040004,0.000029543,0.000014593
1782727128.421923637,-4.458285999,0.156157400,8.876561612,0.007176552,-0.004837741,-0.003153555,0.001673115,-0.004361001,-0.004314732,-0.001976980,-0.006757211,-0.001098817,0.973160830,-0.004069308,0.230085760,0.001407708,0.011533415,-0.005530524,-0.004560293,0.000040004,0.000029543,0.000014593
1782727128.427851200,-4.186941386,0.002475486,8.672452832,0.007176552,-0.002707212,0.004303295,0.001662462,-0.004398451,-0.004321581,-0.001617399,-0.005878560,-0.001212304,0.973159557,-0.004078380,0.230090875,0.001425468,0.011533415,-0.005530524,-0.004560293,0.000040004,0.000029543,0.000014593
1782727128.432166100,-4.172533708,-0.074365466,8.624427237,0.007176552,-0.003772477,0.005368561,0.001656717,-0.004423518,-0.004328628,-0.001045298,-0.005740429,-0.002053745,0.973158353,-0.004082870,0.230095753,0.001447339,0.011533415,-0.005530524,-0.004560293,0.000040004,0.000029543,0.000014593
1782727128.437682390,-4.328616892,-0.141601299,8.672452832,0.002915494,-0.011229329,0.002172768,0.001652008,-0.004455792,-0.004342433,-0.000661972,-0.005960947,-0.002951564,0.973159497,-0.004094988,0.230090532,0.001473839,0.011533415,-0.005530524,-0.004560293,0.000040004,0.000029543,0.000014593
1782727128.442092657,-4.376642487,-0.187225606,8.672452832,0.002915494,-0.005903006,0.001107503,-0.001575626,-0.002772933,-0.003334711,-0.007401093,-0.000708632,-0.000267130,0.973038003,-0.004341150,0.230602879,0.000714773,0.011533690,-0.005533531,-0.004555747,0.000057810,0.000019605,0.000015097
1782727128.447711229,-4.484700076,-0.184824326,8.878962892,0.007176552,-0.002707212,-0.002088290,0.001304761,-0.001337477,-0.003628024,0.001942761,0.005131334,-0.001646311,0.973152541,-0.003866280,0.230127779,0.000623952,0.011530842,-0.005530702,-0.004555777,0.000035968,0.000002285,0.000008267
1782727128.452011347,-4.484700076,-0.184824326,8.878962892,0.011437606,-0.001641948,-0.002088290,0.001312790,-0.001316460,-0.003633725,0.001791460,0.004643351,-0.001005336,0.973150859,-0.003869717,0.230134818,0.000630188,0.011530842,-0.005530702,-0.004555777,0.000035968,0.000002285,0.000008267
1782727128.457789660,-4.319011773,-0.194429445,8.787714261,0.008241814,-0.002707212,-0.007414613,0.001323453,-0.001291610,-0.003638346,0.001899252,0.003958074,-0.000593934,0.973148609,-0.003874608,0.230144249,0.000630724,0.011530842,-0.005530702,-0.004555777,0.000035968,0.000002285,0.000008267
1782727128.462228298,-4.225361862,-0.316894731,8.686860511,0.012502875,-0.002707212,-0.008479878,0.001332788,-0.001275867,-0.003641694,0.002307079,0.003135405,-0.000914755,0.973147161,-0.003878846,0.230150316,0.000623967,0.011530842,-0.005530702,-0.004555777,0.000035968,0.000002285,0.000008267
1782727128.467819929,-4.436674481,-0.280875516,8.643637475,0.015698668,-0.002707212,-0.007414613,0.001345802,-0.001261917,-0.003648529,0.002347839,0.001854154,-0.001529933,0.973145378,-0.003874041,0.230157966,0.000613056,0.011530842,-0.005530702,-0.004555777,0.000035968,0.000002285,0.000008267
1782727128.472177267,-4.587955106,-0.261665278,8.787714261,0.019959722,-0.003772477,-0.009545140,0.001354778,-0.001255748,-0.003655043,0.001771790,0.000977529,-0.001459884,0.973144288,-0.003862658,0.230162798,0.000601558,0.011530842,-0.005530702,-0.004555777,0.000035968,0.000002285,0.000008267
1782727128.477767229,-4.693611415,-0.095976984,8.814128338,0.027416576,-0.002707212,-0.010610409,0.001361416,-0.001251978,-0.003660873,0.000603337,0.000371302,-0.000626057,0.973142954,-0.003833148,0.230168990,0.000578693,0.011530842,-0.005530702,-0.004555777,0.000035968,0.000002285,0.000008267
1782727128.481812716,-4.693611415,-0.095976984,8.814128338,0.027416576,-0.002707212,-0.010610409,0.001361807,-0.001250688,-0.003661900,-0.000409938,0.000266431,0.000118490,0.973141769,-0.003804700,0.230174519,0.000559358,0.011530842,-0.005530702,-0.004555777,0.000035968,0.000002285,0.000008267
1782727128.487550020,-4.556738469,0.144150992,8.907778249,0.019959722,-0.000576683,-0.011675671,0.001356683,-0.001247612,-0.003658021,-0.001376238,0.000805785,0.001233804,0.973139344,-0.003775117,0.230185322,0.000532899,0.011530842,-0.005530702,-0.004555777,0.000035968,0.000002285,0.000008267
1782727128.491976023,-4.338222011,0.206584275,8.862153933,0.018894460,-0.004837741,-0.007414613,0.001350601,-0.001241645,-0.003651236,-0.001372215,0.001890733,0.001832139,0.973137977,-0.003760657,0.230191370,0.000518108,0.011530842,-0.005530702,-0.004555777,0.000035968,0.000002285,0.000008267
1782727128.497894049,-4.268584898,0.237800912,8.643637475,0.014633399,-0.011229329,-0.001023028,0.001343711,-0.001225367,-0.003641229,-0.000956304,0.003610343,0.001549521,0.973139739,-0.003745355,0.230184175,0.000515542,0.011530842,-0.005530702,-0.004555777,0.000035968,0.000002285,0.000008267
1782727128.502090931,-4.393451446,0.153756120,8.624427237,0.001850229,-0.017620916,0.003238030,0.001339627,-0.001207896,-0.003635972,-0.000989688,0.004715378,0.000955821,0.973144003,-0.003749326,0.230166053,0.000528765,0.011530842,-0.005530702,-0.004555777,0.000035968,0.000002285,0.000008267
1782727128.507855892,-4.455884719,0.033692123,8.713274588,0.005046021,-0.017620916,0.002172768,0.001332651,-0.001178023,-0.003631586,-0.001430635,0.005648102,0.000565706,0.973151925,-0.003767163,0.230132205,0.000554626,0.011530842,-0.005530702,-0.004555777,0.000035968,0.000002285,0.000008267
1782727128.512154102,-4.467891118,0.019284444,8.754096344,-0.000280302,-0.014425121,-0.004218820,0.001325754,-0.001152866,-0.003629086,-0.001778704,0.006057931,0.000597668,0.973157036,-0.003784536,0.230110279,0.000566624,0.011530842,-0.005530702,-0.004555777,0.000035968,0.000002285,0.000008267
1782727128.517636538,-4.424668082,-0.067161627,8.864555213,-0.003476094,-0.005903006,-0.003153555,0.001315502,-0.001118960,-0.003624781,-0.001961030,0.006310758,0.000972819,0.973159817,-0.003819750,0.230097907,0.000577450,0.011530842,-0.005530702,-0.004555777,0.000035968,0.000002285,0.000008267
1782727128.522048473,-4.239769541,-0.107983383,8.785312981,0.008241814,-0.001641948,0.001107503,0.001307590,-0.001091285,-0.003620180,-0.001625820,0.006234964,0.001112929,0.973158843,-0.003837598,0.230101699,0.000589663,0.011530842,-0.005530702,-0.004555777,0.000035968,0.000002285,0.000008267
1782727128.527863264,-4.174934987,-0.158410249,8.797319380,0.007176552,-0.001641948,0.001107503,0.001301059,-0.001056096,-0.003614620,-0.000620299,0.005868154,0.000799527,0.973156189,-0.003844629,0.230112759,0.000608199,0.011530842,-0.005530702,-0.004555777,0.000035968,0.000002285,0.000008267
1782727128.532044888,-4.138915791,-0.199232004,8.667650273,0.011437606,-0.002707212,0.001107503,0.001300144,-0.001032513,-0.003612402,0.000182312,0.005411486,0.000261118,0.973154549,-0.003846433,0.230119630,0.000620765,0.011530842,-0.005530702,-0.004555777,0.000035968,0.000002285,0.000008267
1782727128.537924528,-4.232565702,-0.249658879,8.588408041,0.012502875,0.001553846,-0.004218820,0.001303287,-0.001003387,-0.003614478,0.000886747,0.004495896,-0.000967234,0.973151197,-0.003843155,0.230133838,0.000628995,0.011530842,-0.005530702,-0.004555777,0.000035968,0.000002285,0.000008267
1782727128.542069435,-4.443878320,-0.276072957,8.641236196,0.007176552,-0.009098799,-0.007414613,0.001306771,-0.000986419,-0.003619794,0.000794517,0.003691462,-0.001597870,0.973150346,-0.003847170,0.230137371,0.000627244,0.011530842,-0.005530702,-0.004555777,0.000035968,0.000002285,0.000008267
1782727128.547801495,-4.511114154,-0.273671677,8.785312981,0.013568137,-0.006968270,-0.017001994,0.001309636,-0.000968627,-0.003628980,0.000205318,0.002516460,-0.001607340,0.973151998,-0.003855444,0.230130304,0.000606693,0.011530842,-0.005530702,-0.004555777,0.000035968,0.000002285,0.000008267
1782727128.552066803,-4.467891118,-0.223244802,8.902975689,0.016763929,0.000488581,-0.014871463,0.001310013,-0.000959508,-0.003634739,-0.000028857,0.001759506,-0.001093197,0.973150918,-0.003853488,0.230134970,0.000581270,0.011530842,-0.005530702,-0.004555777,0.000035968,0.000002285,0.000008267
1782727128.557847023,-4.460687279,-0.122391061,8.818930898,0.024220783,-0.002707212,-0.017001994,0.001309432,-0.000951039,-0.003638991,-0.000172267,0.001170617,-0.000378028,0.973148095,-0.003835861,0.230147293,0.000543251,0.011530842,-0.005530702,-0.004555777,0.000035968,0.000002285,0.000008267
1782727128.562077045,-4.347827130,-0.093575704,8.720478428,0.008241814,-0.010164063,-0.018067256,0.001308593,-0.000946425,-0.003640458,-0.000224034,0.001011033,-0.000315469,0.973148588,-0.003832503,0.230145330,0.000514257,0.011530842,-0.005530702,-0.004555777,0.000035968,0.000002285,0.000008267
1782727128.567831039,-4.196546505,-0.127193621,8.744491225,0.022090252,-0.001641948,-0.014871463,0.001308780,-0.000941277,-0.003643558,0.000288919,0.000778543,-0.000762138,0.973148892,-0.003830213,0.230144162,0.000478499,0.011530842,-0.005530702,-0.004555777,0.000035968,0.000002285,0.000008267
1782727128.571965218,-4.732031892,-0.112785942,8.809325779,0.027416576,-0.002707212,-0.011675671,0.001309440,-0.000938484,-0.003646297,0.000030326,0.000572547,-0.000562844,0.973147408,-0.003807765,0.230150857,0.000454646,0.011530842,-0.005530702,-0.004555777,0.000035968,0.000002285,0.000008267
1782727128.577855825,-4.662394779,0.060106200,8.754096344,0.017829198,-0.006968270,-0.010610409,0.001304954,-0.000934353,-0.003646903,-0.001553387,0.000829772,0.000357067,0.973147071,-0.003780439,0.230152784,0.000428238,0.011530842,-0.005530702,-0.004555777,0.000035968,0.000002285,0.000008267
1782727128.581849575,-4.662394779,0.060106200,8.754096344,0.026351314,-0.006968270,-0.002088290,0.001296753,-0.000930007,-0.003644558,-0.002553307,0.001347100,0.000817404,0.973147812,-0.003760742,0.230149986,0.000419911,0.011530842,-0.005530702,-0.004555777,0.000035968,0.000002285,0.000008267
1782727128.587650537,-4.604764064,0.321845685,8.857351374,0.018894460,-0.004837741,0.002172768,0.001278546,-0.000917816,-0.003637333,-0.003724143,0.002855767,0.001673618,0.973148176,-0.003726364,0.230148999,0.000425489,0.011530842,-0.005530702,-0.004555777,0.000035968,0.000002285,0.000008267
1782727128.592019796,-4.367037368,0.319444405,8.948600005,0.005046021,-0.009098799,0.001107503,0.001262020,-0.000901614,-0.003628422,-0.003840530,0.004560616,0.002405399,0.973148896,-0.003722314,0.230145993,0.000438452,0.011530842,-0.005530702,-0.004555777,0.000035968,0.000002285,0.000008267
1782727128.597853422,-4.028456922,0.278622668,8.708472029,0.001850229,-0.005903006,0.008564353,0.001242977,-0.000868748,-0.003614866,-0.002687991,0.006707185,0.002242091,0.973150118,-0.003738949,0.230140492,0.000470558,0.011530842,-0.005530702,-0.004555777,0.000035968,0.000002285,0.000008267
1782727128.601927519,-4.220559303,0.072112599,8.521172208,0.001850229,-0.009098799,0.011760145,0.001233417,-0.000839408,-0.003607815,-0.002005338,0.007696108,0.001219505,0.973150953,-0.003751238,0.230136689,0.000504287,0.011530842,-0.005530702,-0.004555777,0.000035968,0.000002285,0.000008267
1782727128.607689381,-4.508712874,-0.076766746,8.720478428,-0.009867679,-0.018686179,0.008564353,0.001221125,-0.000793974,-0.003603059,-0.002261332,0.008074484,0.000431165,0.973156306,-0.003785034,0.230113382,0.000555944,0.011530842,-0.005530702,-0.004555777,0.000035968,0.000002285,0.000008267
1782727128.612143755,-4.275788737,-0.218442243,8.763701463,0.003980756,-0.013359858,0.010694884,0.001210905,-0.000758785,-0.003601287,-0.002327452,0.007725366,0.000364354,0.973161542,-0.003809122,0.230090743,0.000594196,0.011530842,-0.005530702,-0.004555777,0.000035968,0.000002285,0.000008267
1782727128.617827415,-4.232565702,-0.235251201,8.614822118,0.005046021,0.000488581,0.005368561,0.001199052,-0.000717429,-0.003601211,-0.001843482,0.006826990,-0.000337575,0.973162036,-0.003820297,0.230088364,0.000633606,0.011530842,-0.005530702,-0.004555777,0.000035968,0.000002285,0.000008267
1782727128.622128725,-4.556738469,-0.240053760,8.864555213,0.003980756,-0.005903006,-0.002088290,0.001190959,-0.000689621,-0.003602806,-0.001919649,0.006103262,-0.000403919,0.973160573,-0.003831922,0.230094315,0.000650023,0.011530842,-0.005530702,-0.004555777,0.000035968,0.000002285,0.000008267
1782727128.627713203,-4.081285077,-0.268869117,8.874160332,0.010372344,0.002619110,0.000042237,0.001181926,-0.000658406,-0.003604021,-0.001315046,0.005075902,-0.000031121,0.973158021,-0.003841492,0.230104912,0.000662378,0.011530842,-0.005530702,-0.004555777,0.000035968,0.000002285,0.000008267
1782727128.632071257,-4.213355464,-0.204034564,8.814128338,0.016763929,0.010075961,-0.003153555,0.001178578,-0.000637865,-0.003604468,-0.000221455,0.004350864,-0.000174175,0.973152078,-0.003835684,0.230130128,0.000667619,0.011530842,-0.005530702,-0.004555777,0.000035968,0.000002285,0.000008267
1782727128.637759686,-4.388648886,-0.204034564,8.533178606,0.015698668,0.001553846,-0.009545140,0.001177928,-0.000615306,-0.003607346,-0.000007053,0.003580702,-0.000837756,0.973144706,-0.003823870,0.230161520,0.000659454,0.011530842,-0.005530702,-0.004555777,0.000035968,0.000002285,0.000008267
1782727128.642202139,-4.374241207,-0.216040963,8.634032356,0.000784963,-0.014425121,-0.014871463,0.001177161,-0.000600798,-0.003612657,-0.000338429,0.002950856,-0.001553335,0.973145151,-0.003834890,0.230159494,0.000644602,0.011530842,-0.005530702,-0.004555777,0.000035968,0.000002285,0.000008267
1782727128.647863388,-4.367037368,-0.288079356,8.823733457,0.013568137,-0.006968270,-0.014871463,0.001399793,-0.001913146,-0.004131174,0.000359569,-0.000515809,-0.003161664,0.973116360,-0.004462719,0.230270316,0.000464484,0.011534140,-0.005531480,-0.004554047,0.000033858,0.000012963,0.000011268
1782727128.652103901,-4.727229332,-0.211238403,8.756497624,0.024220783,0.000488581,-0.020197786,0.001400169,-0.001916840,-0.004143700,-0.000182105,-0.001226337,-0.002745865,0.973115323,-0.004453872,0.230274929,0.000434086,0.011534140,-0.005531480,-0.004554047,0.000033858,0.000012963,0.000011268
1782727128.657862902,-4.568744868,-0.019136032,8.979816642,0.011437606,-0.012294592,-0.013806202,0.001396080,-0.001924437,-0.004156000,-0.001237963,-0.001412154,-0.001525669,0.973115665,-0.004444486,0.230273736,0.000395037,0.011534140,-0.005531480,-0.004554047,0.000033858,0.000012963,0.000011268
1782727128.662082434,-4.326215612,0.081717718,8.929389767,0.030612368,-0.001641948,-0.007414613,0.001391160,-0.001929377,-0.004160674,-0.001093768,-0.000929149,-0.000689978,0.973116457,-0.004427942,0.230270737,0.000378005,0.011534140,-0.005531480,-0.004554047,0.000033858,0.000012963,0.000011268
1782727128.667631149,-4.407859124,0.187374037,8.710873309,0.026351314,-0.000576683,-0.002088290,0.001385796,-0.001931213,-0.004163872,-0.000839728,0.000267204,-0.000462811,0.973113839,-0.004382318,0.230282691,0.000366591,0.011534140,-0.005531480,-0.004554047,0.000033858,0.000012963,0.000011268
1782727128.672139645,-4.467891118,0.158558680,8.667650273,0.013568137,-0.006968270,-0.006349348,0.001381236,-0.001927441,-0.004166412,-0.001183358,0.001406255,-0.000663923,0.973113008,-0.004363663,0.230286560,0.000362935,0.011534140,-0.005531480,-0.004554047,0.000033858,0.000012963,0.000011268
1782727128.677768707,-4.364636088,0.072112599,8.662847713,0.009307079,-0.010164063,-0.007414613,0.001373502,-0.001916438,-0.004171342,-0.001564274,0.002503038,-0.001087684,0.973114976,-0.004365433,0.230278220,0.000356659,0.011534140,-0.005531480,-0.004554047,0.000033858,0.000012963,0.000011268
1782727128.681832075,-4.525521832,0.067310040,8.763701463,0.013568137,-0.001641948,0.000042237,0.001366553,-0.001905032,-0.004175919,-0.001856010,0.003111170,-0.001165116,0.973115149,-0.004365218,0.230277493,0.000358423,0.011534140,-0.005531480,-0.004554047,0.000033858,0.000012963,0.000011268
1782727128.687600613,-4.671999898,0.100927956,8.936593606,0.011437606,-0.006968270,-0.002088290,0.001353388,-0.001884334,-0.004179778,-0.002708639,0.004064787,-0.000172608,0.973114343,-0.004360155,0.230280980,0.000367675,0.011534140,-0.005531480,-0.004554047,0.000033858,0.000012963,0.000011268
1782727128.692082882,-4.331018172,0.196979156,8.876561612,0.003980756,-0.008033535,0.005368561,0.001340887,-0.001863799,-0.004178759,-0.002869322,0.005098110,0.000626902,0.973115316,-0.004365298,0.230276743,0.000383177,0.011534140,-0.005531480,-0.004554047,0.000033858,0.000012963,0.000011268
1782727128.697853804,-4.153323470,0.163361239,8.749293785,0.006111287,-0.002707212,0.004303295,0.001326891,-0.001830037,-0.004175505,-0.001981028,0.006602652,0.000500901,0.973115117,-0.004377277,0.230277306,0.000413852,0.011534140,-0.005531480,-0.004554047,0.000033858,0.000012963,0.000011268
1782727128.701932192,-4.398254005,-0.047951389,8.710873309,-0.004541360,-0.012294592,0.006433826,0.001319535,-0.001801963,-0.004174126,-0.001626173,0.007164569,0.000175429,0.973115937,-0.004393946,0.230273477,0.000438607,0.011534140,-0.005531480,-0.004554047,0.000033858,0.000012963,0.000011268
1782727128.707622528,-4.098094035,-0.156008969,8.581204202,-0.001345564,-0.015490387,0.003238030,0.001311481,-0.001761553,-0.004175815,-0.001204874,0.007038336,-0.000769001,0.973121221,-0.004427868,0.230250427,0.000474195,0.011534140,-0.005531480,-0.004554047,0.000033858,0.000012963,0.000011268
1782727128.711986542,-4.213355464,-0.292881915,8.574000362,0.003980756,-0.005903006,0.000042237,0.001307424,-0.001732219,-0.004181718,-0.000654251,0.006405193,-0.001936557,0.973123710,-0.004446444,0.230239509,0.000492530,0.011534140,-0.005531480,-0.004554047,0.000033858,0.000012963,0.000011268
1782727128.717858791,-4.503910314,-0.360117767,8.643637475,0.005046021,-0.010164063,-0.004218820,0.001302874,-0.001698854,-0.004195639,-0.000895362,0.004958605,-0.002804736,0.973125306,-0.004464833,0.230232382,0.000504354,0.011534140,-0.005531480,-0.004554047,0.000033858,0.000012963,0.000011268
1782727128.722213745,-4.352629690,-0.364920326,8.866956493,0.002915494,-0.001641948,-0.009545140,0.001298619,-0.001679921,-0.004207715,-0.001059042,0.003736403,-0.002741079,0.973125421,-0.004482005,0.230231564,0.000503212,0.011534140,-0.005531480,-0.004554047,0.000033858,0.000012963,0.000011268
1782727128.727539778,-4.343024571,-0.247257600,8.902975689,0.019959722,0.007945432,-0.005284086,0.001294293,-0.001663184,-0.004220981,-0.000565244,0.002548312,-0.002240396,0.973120100,-0.004484020,0.230254032,0.000495754,0.011534140,-0.005531480,-0.004554047,0.000033858,0.000012963,0.000011268
1782727128.731959820,-4.448680880,-0.131996180,8.720478428,0.021024991,0.009010697,-0.009545140,0.001291963,-0.001652971,-0.004230404,-0.000489162,0.002073114,-0.002023531,0.973113062,-0.004466226,0.230284142,0.000484905,0.011534140,-0.005531480,-0.004554047,0.000033858,0.000012963,0.000011268
1782727128.737782240,-4.398254005,-0.088773145,8.818930898,0.011437606,-0.001641948,-0.007414613,0.001288674,-0.001641388,-0.004241793,-0.000640665,0.001905709,-0.001888411,0.973106950,-0.004455564,0.230310205,0.000470515,0.011534140,-0.005531480,-0.004554047,0.000033858,0.000012963,0.000011268
1782727128.741922617,-4.376642487,-0.151206418,8.602815719,0.025286045,-0.004837741,-0.011675671,0.001285849,-0.001633832,-0.004250001,-0.000723781,0.001743921,-0.002076573,0.973105925,-0.004444191,0.230314783,0.000457183,0.011534140,-0.005531480,-0.004554047,0.000033858,0.000012963,0.000011268
1782727128.747889519,-4.623974302,-0.098378264,8.682057952,0.014633399,-0.009098799,-0.013806202,0.001278829,-0.001624220,-0.004263389,-0.001629045,0.001477984,-0.002410669,0.973107034,-0.004425354,0.230310514,0.000427645,0.011534140,-0.005531480,-0.004554047,0.000033858,0.000012963,0.000011268
1782727128.752159119,-4.585553826,-0.050352669,8.847746255,0.017829198,-0.013359858,-0.011675671,0.001270137,-0.001617845,-0.004272771,-0.002442765,0.001508066,-0.001984269,0.973109887,-0.004419616,0.230298604,0.000408382,0.011534140,-0.005531480,-0.004554047,0.000033858,0.000012963,0.000011268
1782727128.757886648,-4.628776862,-0.004728353,8.845344975,0.018894460,-0.013359858,-0.007414613,0.001253575,-0.001608316,-0.004281290,-0.003340373,0.001819492,-0.000990395,0.973115142,-0.004403871,0.230276733,0.000390069,0.011534140,-0.005531480,-0.004554047,0.000033858,0.000012963,0.000011268
1782727128.762256145,-4.508712874,0.124940754,8.965408963,0.017829198,-0.002707212,-0.006349348,0.001238060,-0.001599008,-0.004283630,-0.003761408,0.002441112,-0.000080828,0.973116468,-0.004390525,0.230271397,0.000381709,0.011534140,-0.005531480,-0.004554047,0.000033858,0.000012963,0.000011268
1782727128.767651796,-4.419865523,0.180170198,8.871759052,0.023155522,-0.003772477,0.001107503,0.001217805,-0.001582427,-0.004281557,-0.003746245,0.003704846,0.000849344,0.973115149,-0.004365808,0.230277445,0.000381191,0.011534140,-0.005531480,-0.004554047,0.000033858,0.000012963,0.000011268
1782727128.772022963,-4.278190017,0.206584275,8.571599083,0.011437606,-0.004837741,0.000042237,0.001201598,-0.001563626,-0.004278375,-0.003669576,0.004897575,0.000606264,0.973114582,-0.004350972,0.230280107,0.000389188,0.011534140,-0.005531480,-0.004554047,0.000033858,0.000012963,0.000011268
1782727128.777839899,-4.319011773,0.076915159,8.660446434,0.007176552,-0.006968270,-0.001023028,0.001180512,-0.001531410,-0.004277763,-0.003580089,0.006178876,-0.000395583,0.973114798,-0.004354553,0.230279105,0.000402185,0.011534140,-0.005531480,-0.004554047,0.000033858,0.000012963,0.000011268
1782727128.781865597,-4.508712874,0.036093403,8.768504023,0.002915494,-0.010164063,0.003238030,0.001165748,-0.001505433,-0.004279613,-0.003754859,0.006726969,-0.000523841,0.973116143,-0.004364635,0.230273205,0.000416309,0.011534140,-0.005531480,-0.004554047,0.000033858,0.000012963,0.000011268
1782727128.787633419,-4.391050166,-0.007129633,8.715675868,0.001850229,-0.011229329,0.002172768,0.001143036,-0.001465058,-0.004282480,-0.004120609,0.007273097,-0.000470129,0.973119449,-0.004385490,0.230258790,0.000442824,0.011534140,-0.005531480,-0.004554047,0.000033858,0.000012963,0.000011268
1782727128.792092323,-4.391050166,0.014481885,8.823733457,0.000784963,-0.010164063,0.005368561,0.001124676,-0.001431790,-0.004284499,-0.004114544,0.007648934,-0.000435702,0.973121992,-0.004403376,0.230247655,0.000466180,0.011534140,-0.005531480,-0.004554047,0.000033858,0.000012963,0.000011268
1782727128.797647476,-4.328616892,-0.047951389,8.857351374,0.000784963,-0.005903006,0.000042237,0.001102759,-0.001388299,-0.004286037,-0.003776051,0.008009008,-0.000117806,0.973123450,-0.004427784,0.230240967,0.000492706,0.011534140,-0.005531480,-0.004554047,0.000033858,0.000012963,0.000011268
1782727128.802068710,-4.059673559,-0.119989782,8.708472029,0.001850229,-0.002707212,0.001107503,0.001087858,-0.001352916,-0.004287222,-0.002964810,0.007996619,-0.000418345,0.973122720,-0.004447153,0.230243644,0.000508928,0.011534140,-0.005531480,-0.004554047,0.000033858,0.000012963,0.000011268
1782727128.807715178,-4.189342666,-0.278474236,8.600414440,0.007176552,-0.005903006,-0.005284086,0.001074123,-0.001309660,-0.004292980,-0.001899913,0.007324753,-0.001621335,0.973121831,-0.004464841,0.230247034,0.000520250,0.011534140,-0.005531480,-0.004554047,0.000033858,0.000012963,0.000011268
1782727128.811999083,-4.179737547,-0.374525445,8.578802922,0.009307079,-0.009098799,-0.003153555,0.001066959,-0.001280545,-0.004302156,-0.001445016,0.006268117,-0.002662446,0.973122770,-0.004471536,0.230242928,0.000522592,0.011534140,-0.005531480,-0.004554047,0.000033858,0.000012963,0.000011268
1782727128.817813158,-4.499107755,-0.412945921,8.756497624,0.017829198,-0.003772477,-0.007414613,0.001058606,-0.001249394,-0.004319382,-0.001428449,0.004447667,-0.003263000,0.973123403,-0.004466269,0.230240364,0.000519177,0.011534140,-0.005531480,-0.004554047,0.000033858,0.000012963,0.000011268
1782727128.822157621,-4.499107755,-0.336104969,8.778109142,0.017829198,-0.002707212,-0.015936732,0.001051501,-0.001232836,-0.004333018,-0.001842156,0.003174980,-0.003014572,0.973122326,-0.004456526,0.230245146,0.000500952,0.011534140,-0.005531480,-0.004554047,0.000033858,0.000012963,0.000011268
1782727128.827699423,-4.539929511,-0.165614088,8.842943695,0.013568137,0.000488581,-0.014871463,0.001039845,-0.001217833,-0.004348128,-0.002364486,0.002239482,-0.002438631,0.973119570,-0.004452225,0.230256942,0.000468984,0.011534140,-0.005531480,-0.004554047,0.000033858,0.000012963,0.000011268
1782727128.832032681,-4.537528231,-0.134397460,8.958205124,0.026351314,0.005814903,-0.015936732,0.001028932,-0.001208760,-0.004356891,-0.002672164,0.001948084,-0.001605860,0.973115330,-0.004439883,0.230275153,0.000441821,0.011534140,-0.005531480,-0.004554047,0.000033858,0.000012963,0.000011268
1782727128.837827682,-4.436674481,0.048099802,8.854950094,0.028481837,-0.000576683,-0.013806202,0.001013078,-0.001196815,-0.004363284,-0.002799672,0.002174366,-0.000600362,0.973110108,-0.004401995,0.230298022,0.000402028,0.011534140,-0.005531480,-0.004554047,0.000033858,0.000012963,0.000011268
1782727128.842019796,-4.263782339,0.141749712,8.583605481,0.019959722,-0.010164063,-0.009545140,0.001001482,-0.001186163,-0.004366296,-0.002732487,0.002907870,-0.000836854,0.973110153,-0.004379556,0.230298296,0.000381377,0.011534140,-0.005531480,-0.004554047,0.000033858,0.000012963,0.000011268
1782727128.847773790,-4.537528231,0.086520278,8.744491225,0.015698668,-0.006968270,-0.007414613,0.000984865,-0.001166227,-0.004372491,-0.003043340,0.004021561,-0.001316376,0.973112247,-0.004364530,0.230289757,0.000366253,0.011534140,-0.005531480,-0.004554047,0.000033858,0.000012963,0.000011268
1782727128.852213860,-4.535126951,0.062507480,8.816529618,0.011437606,-0.018686179,-0.009545140,0.000970137,-0.001146842,-0.004377528,-0.003590885,0.004710282,-0.000952726,0.973115999,-0.004362137,0.230273959,0.000356803,0.011534140,-0.005531480,-0.004554047,0.000033858,0.000012963,0.000011268
1782727128.857865572,-4.523120552,0.139348432,8.773306582,0.013568137,-0.011229329,-0.003153555,0.000948069,-0.001117319,-0.004381454,-0.004218335,0.005736857,-0.000436572,0.973122147,-0.004360632,0.230248017,0.000351352,0.011534140,-0.005531480,-0.004554047,0.000033858,0.000012963,0.000011268
1782727128.862188101,-4.580751267,0.177768918,8.914982088,0.012502875,-0.006968270,-0.001023028,0.000928811,-0.001090283,-0.004381986,-0.004692357,0.006772612,0.000190522,0.973123934,-0.004356244,0.230240538,0.000355824,0.011534140,-0.005531480,-0.004554047,0.000033858,0.000012963,0.000011268
1782727128.867814064,-4.340623291,0.204182995,8.864555213,0.009307079,-0.006968270,0.003238030,0.000902288,-0.001047873,-0.004378624,-0.004736339,0.008303985,0.001004628,0.973124851,-0.004354298,0.230236674,0.000371747,0.011534140,-0.005531480,-0.004554047,0.000033858,0.000012963,0.000011268
1782727128.872138977,-4.206151624,0.175367638,8.698866910,0.002915494,-0.004837741,0.003238030,0.000882843,-0.001009435,-0.004374614,-0.004255475,0.009471212,0.000849741,0.973124979,-0.004361830,0.230235961,0.000390848,0.011534140,-0.005531480,-0.004554047,0.000033858,0.000012963,0.000011268
1782727128.877587318,-4.153323470,-0.009530913,8.634032356,-0.002410829,-0.002707212,0.005368561,0.000861790,-0.000955424,-0.004372655,-0.003472879,0.010355188,-0.000130600,0.973123731,-0.004386184,0.230240717,0.000421383,0.011534140,-0.005531480,-0.004554047,0.000033858,0.000012963,0.000011268
1782727128.881766319,-4.278190017,-0.086371865,8.660446434,0.007176552,-0.009098799,0.008564353,0.000848178,-0.000911876,-0.004374772,-0.003041647,0.010486347,-0.000882296,0.973123815,-0.004399249,0.230240059,0.000449214,0.011534140,-0.005531480,-0.004554047,0.000033858,0.000012963,0.000011268
1782727128.887351036,-4.419865523,-0.151206418,8.658045154,0.003980756,-0.012294592,0.006433826,0.000831025,-0.000853924,-0.004381396,-0.003101049,0.010267446,-0.001490082,0.973127047,-0.004407677,0.230226164,0.000485859,0.011534140,-0.005531480,-0.004554047,0.000033858,0.000012963,0.000011268
1782727128.892142296,-4.405457844,-0.170416647,8.838141136,0.002915494,-0.009098799,0.001107503,0.000815848,-0.000805651,-0.004388542,-0.003234360,0.009883168,-0.001492668,0.973129800,-0.004421930,0.230214201,0.000509780,0.011534140,-0.005531480,-0.004554047,0.000033858,0.000012963,0.000011268
1782727128.897676229,-4.331018172,-0.199232004,8.842943695,0.009307079,0.001553846,-0.003153555,0.000798768,-0.000752539,-0.004395847,-0.002938366,0.009311708,-0.001147326,0.973128608,-0.004434285,0.230218973,0.000522720,0.011534140,-0.005531480,-0.004554047,0.000033858,0.000012963,0.000011268
1782727128.901972532,-4.239769541,-0.206435844,8.701268190,0.010372344,-0.004837741,-0.004218820,0.000787040,-0.000713658,-0.004401106,-0.002521172,0.008787915,-0.001300897,0.973126668,-0.004437402,0.230227110,0.000525335,0.011534140,-0.005531480,-0.004554047,0.000033858,0.000012963,0.000011268
1782727128.907854080,-4.153323470,-0.276072957,8.773306582,0.011437606,-0.001641948,-0.007414613,0.000775000,-0.000664751,-0.004410597,-0.001573187,0.007842916,-0.001926464,0.973125110,-0.004440061,0.230233651,0.000522118,0.011534140,-0.005531480,-0.004554047,0.000033858,0.000012963,0.000011268
1782727128.911995411,-4.275788737,-0.312092171,8.718077148,0.015698668,-0.000576683,-0.006349348,0.000769764,-0.000634101,-0.004419349,-0.000955378,0.006959001,-0.002300581,0.973123023,-0.004437077,0.230242542,0.000516417,0.011534140,-0.005531480,-0.004554047,0.000033858,0.000012963,0.000011268
1782727128.917597294,-4.429470642,-0.297684475,8.614822118,0.019959722,-0.000576683,-0.014871463,0.000764263,-0.000598647,-0.004433794,-0.001008448,0.005698803,-0.002856372,0.973119914,-0.004423832,0.230255981,0.000495788,0.011534140,-0.005531480,-0.004554047,0.000033858,0.000012963,0.000011268
1782727128.922172070,-4.539929511,-0.278474236,8.725280987,0.011437606,-0.009098799,-0.020197786,0.000758332,-0.000574752,-0.004447248,-0.001584701,0.004747814,-0.003025401,0.973119605,-0.004421399,0.230257399,0.000464694,0.011534140,-0.005531480,-0.004554047,0.000033858,0.000012963,0.000011268
1782727128.927692890,-4.616770463,-0.180021766,8.895771850,0.026351314,0.002619110,-0.020197786,0.000747346,-0.000550790,-0.004461968,-0.002395162,0.003932581,-0.002307128,0.973118257,-0.004411574,0.230263373,0.000417966,0.011534140,-0.005531480,-0.004554047,0.000033858,0.000012963,0.000011268
1782727128.932050705,-4.729630612,0.026488284,8.948600005,0.028481837,0.006880168,-0.017001994,0.000735184,-0.000533600,-0.004469447,-0.003186288,0.003956879,-0.001125495,0.973113263,-0.004384954,0.230285051,0.000380116,0.011534140,-0.005531480,-0.004554047,0.000033858,0.000012963,0.000011268
1782727128.937630653,-4.436674481,0.247406031,8.828536017,0.021024991,-0.003772477,-0.013806202,0.000715595,-0.000508119,-0.004472630,-0.003835197,0.005176077,-0.000015256,0.973108883,-0.004356043,0.230304169,0.000342079,0.011534140,-0.005531480,-0.004554047,0.000033858,0.000012963,0.000011268
1782727128.942090988,-4.338222011,0.232998352,8.708472029,0.013568137,-0.009098799,-0.007414613,0.000698533,-0.000481846,-0.004472667,-0.003814995,0.006604906,-0.000001557,0.973109408,-0.004346648,0.230302152,0.000325985,0.011534140,-0.005531480,-0.004554047,0.000033858,0.000012963,0.000011268
1782727128.947692394,-4.347827130,0.187374037,8.732484826,0.014633399,-0.012294592,-0.003153555,0.000677517,-0.000440303,-0.004473610,-0.003688883,0.008227880,-0.000334932,0.973112771,-0.004340119,0.230288068,0.000322402,0.011534140,-0.005531480,-0.004554047,0.000033858,0.000012963,0.000011268
1782727128.952044964,-4.523120552,0.105730516,8.737287386,0.003980756,-0.017620916,-0.004218820,0.000660951,-0.000402346,-0.004475112,-0.003923521,0.009213431,-0.000355291,0.973117473,-0.004344393,0.230268112,0.000325445,0.011534140,-0.005531480,-0.004554047,0.000033858,0.000012963,0.000011268
1782727128.957844496,-4.417464243,0.072112599,8.672452832,0.003980756,-0.015490387,0.002172768,0.000636532,-0.000346072,-0.004477432,-0.004497464,0.010192848,-0.000444822,0.973124735,-0.004363340,0.230237041,0.000340592,0.011534140,-0.005531480,-0.004554047,0.000033858,0.000012963,0.000011268
1782727128.962308884,-4.467891118,0.048099802,8.842943695,0.012502875,-0.003772477,0.005368561,0.000615948,-0.000299168,-0.004479222,-0.004723852,0.010819860,-0.000357081,0.973126804,-0.004366210,0.230228214,0.000360407,0.011534140,-0.005531480,-0.004554047,0.000033858,0.000012963,0.000011268
1782727128.967873096,-4.491903916,0.115335635,8.854950094,0.006111287,-0.004837741,0.003238030,0.000588996,-0.000236444,-0.004479386,-0.004963624,0.011725637,0.000297966,0.973125982,-0.004366567,0.230231639,0.000385798,0.011534140,-0.005531480,-0.004554047,0.000033858,0.000012963,0.000011268
1782727128.972056866,-4.177336267,0.028889564,8.768504023,-0.000280302,-0.001641948,0.006433826,0.000568844,-0.000186049,-0.004477970,-0.004669827,0.012365014,0.000379264,0.973124792,-0.004379591,0.230236383,0.000409043,0.011534140,-0.005531480,-0.004554047,0.000033858,0.000012963,0.000011268
1782727128.977848053,-4.016450523,-0.045550109,8.708472029,0.005046021,0.006880168,0.007499088,0.000546003,-0.000113240,-0.004478321,-0.003218496,0.012779931,-0.000500466,0.973119227,-0.004397707,0.230259484,0.000447503,0.011534140,-0.005531480,-0.004554047,0.000033858,0.000012963,0.000011268
1782727128.981845140,-4.415062963,-0.153607698,8.653242594,0.002915494,-0.006968270,0.006433826,0.000534089,-0.000062316,-0.004481514,-0.002742819,0.012700396,-0.001097625,0.973116625,-0.004407100,0.230270251,0.000473336,0.011534140,-0.005531480,-0.004554047,0.000033858,0.000012963,0.000011268
1782727128.987873554,-4.307005374,-0.244856320,8.583605481,-0.001345564,-0.011229329,0.002172768,0.000516850,0.000012074,-0.004490662,-0.002976384,0.011979336,-0.001937165,0.973118944,-0.004432476,0.230259889,0.000506824,0.011534140,-0.005531480,-0.004554047,0.000033858,0.000012963,0.000011268
1782727128.992250204,-4.376642487,-0.321697290,8.739688666,0.003980756,-0.004837741,-0.004218820,0.000503804,0.000062559,-0.004500180,-0.002985330,0.011091011,-0.002412131,0.973120102,-0.004452451,0.230254584,0.000519516,0.011534140,-0.005531480,-0.004554047,0.000033858,0.000012963,0.000011268
1782727128.997613430,-4.532725672,-0.276072957,8.799720660,0.011437606,-0.003772477,-0.006349348,0.000487010,0.000118918,-0.004512559,-0.003277090,0.009925583,-0.002204115,0.973119300,-0.004462884,0.230257770,0.000519958,0.011534140,-0.005531480,-0.004554047,0.000033858,0.000012963,0.000011268
1782727129.002100229,-4.405457844,-0.283276796,8.758898904,0.011437606,-0.010164063,-0.012740932,0.000471672,0.000161460,-0.004521908,-0.003560225,0.009037709,-0.001963317,0.973120047,-0.004465672,0.230254584,0.000509126,0.011534140,-0.005531480,-0.004554047,0.000033858,0.000012963,0.000011268
1782727129.007651567,-4.086087636,-0.232849921,8.890969291,0.018894460,0.004749639,-0.009545140,0.000454328,0.000208917,-0.004532896,-0.002688344,0.008059962,-0.001995571,0.973118296,-0.004460077,0.230262135,0.000488972,0.011534140,-0.005531480,-0.004554047,0.000033858,0.000012963,0.000011268
1782727129.012109756,-4.496706475,-0.242455040,8.787714261,0.019959722,0.005814903,-0.011675671,0.000443566,0.000243302,-0.004541521,-0.002139400,0.007365674,-0.001873709,0.973112830,-0.004446076,0.230285541,0.000471676,0.011534140,-0.005531480,-0.004554047,0.000033858,0.000012963,0.000011268
1782727129.017872572,-4.470292398,-0.220843522,8.670051553,0.027416576,-0.009098799,-0.008479878,0.000429611,0.000283243,-0.004552076,-0.002703648,0.006495712,-0.001789352,0.973110411,-0.004415667,0.230296392,0.000448074,0.011534140,-0.005531480,-0.004554047,0.000033858,0.000012963,0.000011268
1782727129.022055626,-4.484700076,-0.040747549,8.744491225,0.033808161,0.000488581,-0.008479878,0.000417405,0.000309969,-0.004559633,-0.003132325,0.006282669,-0.001823733,0.973110000,-0.004378730,0.230298870,0.000430883,0.011534140,-0.005531480,-0.004554047,0.000033858,0.000012963,0.000011268
1782727129.027912617,-4.667197338,0.079316438,8.806924499,0.024220783,-0.008033535,-0.011675671,0.000396313,0.000348467,-0.004568671,-0.004070250,0.006863138,-0.001262380,0.973109043,-0.004332643,0.230303833,0.000403330,0.011534140,-0.005531480,-0.004554047,0.000033858,0.000012963,0.000011268
1782727129.032095671,-4.703216534,0.218590674,8.751695065,0.016763929,-0.008033535,-0.012740932,0.000377041,0.000379177,-0.004572665,-0.005143826,0.007820033,-0.000647607,0.973110336,-0.004318095,0.230298679,0.000383459,0.011534140,-0.005531480,-0.004554047,0.000033858,0.000012963,0.000011268
1782727129.037682056,-4.323814332,0.247406031,8.934192326,0.012502875,-0.006968270,-0.008479878,0.000347136,0.000427749,-0.004574314,-0.005562685,0.009569292,0.000057408,0.973111646,-0.004313565,0.230293256,0.000365027,0.011534140,-0.005531480,-0.004554047,0.000033858,0.000012963,0.000011268
1782727129.042057991,-4.381445047,0.242603471,8.847746255,0.009307079,-0.005903006,-0.003153555,0.000323658,0.000472739,-0.004573135,-0.005167555,0.010993174,0.000481532,0.973112097,-0.004315540,0.230291319,0.000362664,0.011534140,-0.005531480,-0.004554047,0.000033858,0.000012963,0.000011268
1782727129.047904730,-4.338222011,0.180170198,8.677255392,0.000784963,-0.012294592,-0.001023028,0.000293892,0.000541986,-0.004570566,-0.005014622,0.012694283,0.000397240,0.973114414,-0.004332333,0.230281195,0.000374092,0.011534140,-0.005531480,-0.004554047,0.000033858,0.000012963,0.000011268
1782727129.051995516,-4.230164422,0.004876766,8.679656672,0.005046021,-0.015490387,0.004303295,0.000273848,0.000595350,-0.004569965,-0.004785143,0.013395726,-0.000103740,0.973118270,-0.004346564,0.230264601,0.000390554,0.011534140,-0.005531480,-0.004554047,0.000033858,0.000012963,0.000011268
1782727129.057868719,-4.424668082,-0.088773145,8.636433636,0.007176552,-0.010164063,0.001107503,0.000245886,0.000674663,-0.004572648,-0.004736580,0.013612856,-0.000809858,0.973123126,-0.004357144,0.230243839,0.000415059,0.011534140,-0.005531480,-0.004554047,0.000033858,0.000012963,0.000011268
1782727129.062331200,-4.477496237,-0.127193621,8.842943695,0.007176552,-0.008033535,0.003238030,0.000224095,0.000735130,-0.004576176,-0.005029618,0.013487144,-0.000770944,0.973124910,-0.004363146,0.230236154,0.000431938,0.011534140,-0.005531480,-0.004554047,0.000033858,0.000012963,0.000011268
1782727129.067709208,-4.357432249,-0.074365466,8.814128338,0.011437606,-0.004837741,0.001107503,0.000197106,0.000807371,-0.004579266,-0.005007385,0.013378032,-0.000378238,0.973125435,-0.004364808,0.230233865,0.000450930,0.011534140,-0.005531480,-0.004554047,0.000033858,0.000012963,0.000011268
1782727129.072081327,-4.287795136,-0.079168026,8.785312981,0.008241814,-0.000576683,-0.001023028,0.000175940,0.000865893,-0.004580876,-0.004674796,0.013392651,-0.000358305,0.973123993,-0.004366102,0.230239915,0.000461534,0.011534140,-0.005531480,-0.004554047,0.000033858,0.000012963,0.000011268
1782727129.077722788,-4.150922190,-0.083970585,8.835739856,0.007176552,0.001553846,-0.001023028,0.000152329,0.000941425,-0.004583407,-0.003695619,0.013384909,-0.000538926,0.973120031,-0.004374316,0.230256478,0.000473636,0.011534140,-0.005531480,-0.004554047,0.000033858,0.000012963,0.000011268
1782727129.081825495,-4.210954184,-0.180021766,8.549987565,0.003980756,-0.001641948,-0.002088290,0.000138477,0.000995896,-0.004586914,-0.003057427,0.013168676,-0.001170746,0.973117383,-0.004384793,0.230267453,0.000482385,0.011534140,-0.005531480,-0.004554047,0.000033858,0.000012963,0.000011268
1782727129.087788105,-4.239769541,-0.302487034,8.521172208,0.008241814,-0.006968270,-0.006349348,0.000121060,0.001071518,-0.004598761,-0.002784636,0.012196649,-0.002803177,0.973116470,-0.004400298,0.230271008,0.000487064,0.011534140,-0.005531480,-0.004554047,0.000033858,0.000012963,0.000011268
1782727129.092236042,-4.475094957,-0.355315207,8.720478428,0.013568137,-0.011229329,-0.014871463,0.000108337,0.001123298,-0.004612591,-0.002935915,0.011086306,-0.003415447,0.973118297,-0.004404757,0.230263227,0.000474314,0.011534140,-0.005531480,-0.004554047,0.000033858,0.000012963,0.000011268
1782727129.097624540,-4.592757666,-0.355315207,8.847746255,0.016763929,-0.008033535,-0.010610409,0.000090793,0.001179053,-0.004629723,-0.003575913,0.009607777,-0.002943266,0.973120893,-0.004400308,0.230252385,0.000450645,0.011534140,-0.005531480,-0.004554047,0.000033858,0.000012963,0.000011268
1782727129.102118969,-4.549534630,-0.184824326,8.838141136,0.028481837,-0.002707212,-0.012740932,0.000073449,0.001220327,-0.004641374,-0.004141914,0.008758871,-0.002241327,0.973120927,-0.004379745,0.230252678,0.000429332,0.011534140,-0.005531480,-0.004554047,0.000033858,0.000012963,0.000011268
1782727129.107652187,-4.443878320,-0.033543710,8.922185927,0.018894460,0.000488581,-0.010610409,0.000049874,0.001268360,-0.004651407,-0.004379452,0.008602930,-0.001385044,0.973118264,-0.004351565,0.230264512,0.000402363,0.011534140,-0.005531480,-0.004554047,0.000033858,0.000012963,0.000011268
1782727129.112043619,-4.400655285,0.088921558,8.840542416,0.024220783,0.005814903,-0.009545140,0.000030875,0.001307184,-0.004656319,-0.004273385,0.009078618,-0.000852212,0.973113974,-0.004332948,0.230283021,0.000385410,0.011534140,-0.005531480,-0.004554047,0.000033858,0.000012963,0.000011268
1782727129.117917538,-4.494305195,0.093724117,8.706070749,0.015698668,-0.003772477,-0.009545140,0.000004969,0.001363457,-0.004660712,-0.004547147,0.010081599,-0.000643549,0.973109655,-0.004312251,0.230301695,0.000365364,0.011534140,-0.005531480,-0.004554047,0.000033858,0.000012963,0.000011268
1782727129.121977806,-4.343024571,0.100927956,8.715675868,0.012502875,-0.003772477,-0.009545140,-0.000013896,0.001405843,-0.004663599,-0.004745188,0.010796946,-0.000778550,0.973108859,-0.004309515,0.230305128,0.000354288,0.011534140,-0.005531480,-0.004554047,0.000033858,0.000012963,0.000011268
1782727129.127857208,-4.609566624,0.110533075,8.667650273,0.012502875,-0.010164063,-0.001023028,-0.000043678,0.001472511,-0.004668603,-0.005386085,0.011881498,-0.000923528,0.973109844,-0.004307237,0.230301009,0.000351562,0.011534140,-0.005531480,-0.004554047,0.000033858,0.000012963,0.000011268
1782727129.132081032,-4.523120552,0.144150992,8.758898904,0.008241814,-0.016555650,-0.001023028,0.001049969,0.000314213,-0.000222384,-0.006405107,0.006024571,0.005689099,0.973176808,-0.003642122,0.230028099,0.000841863,0.011530859,-0.005529831,-0.004557892,0.000035704,0.000009338,-0.000004869
1782727129.137870550,-4.472693678,0.158558680,8.914982088,0.003980756,-0.010164063,0.000042237,0.001011729,0.000352723,-0.000187506,-0.006804997,0.007278932,0.006359763,0.973181954,-0.003654662,0.230006071,0.000857013,0.011530859,-0.005529831,-0.004557892,0.000035704,0.000009338,-0.000004869
1782727129.142008781,-4.458285999,0.192176596,8.922185927,0.008241814,-0.003772477,0.007499088,0.000983537,0.000384912,-0.000159696,-0.006820233,0.008277616,0.007080515,0.973182583,-0.003661608,0.230003227,0.000876373,0.011530859,-0.005529831,-0.004557892,0.000035704,0.000009338,-0.000004869
1782727129.147779226,-4.215756743,0.103329236,8.694064350,0.008241814,-0.012294592,0.006433826,0.000945208,0.000436219,-0.000118538,-0.006464267,0.009505374,0.007184827,0.973184180,-0.003663190,0.229996311,0.000910941,0.011530859,-0.005529831,-0.004557892,0.000035704,0.000009338,-0.000004869
1782727129.152077675,-4.201349065,-0.016734752,8.662847713,-0.003476094,-0.005903006,0.008564353,0.000918519,0.000478071,-0.000089083,-0.005953921,0.009967323,0.006519945,0.973185848,-0.003676356,0.229988923,0.000940709,0.011530859,-0.005529831,-0.004557892,0.000035704,0.000009338,-0.000004869
1782727129.157881498,-4.285393856,-0.168015368,8.730083547,0.007176552,-0.006968270,0.005368561,0.000885582,0.000535450,-0.000053298,-0.005396238,0.009805610,0.005811439,0.973186317,-0.003696002,0.229986461,0.000979726,0.011530859,-0.005529831,-0.004557892,0.000035704,0.000009338,-0.000004869
1782727129.162036896,-4.249374660,-0.208837123,8.516369648,-0.005606622,-0.010164063,0.001107503,0.000863521,0.000575124,-0.000030671,-0.005221438,0.009289386,0.005079406,0.973187669,-0.003713998,0.229980359,0.001000647,0.011530859,-0.005529831,-0.004557892,0.000035704,0.000009338,-0.000004869
1782727129.167851448,-4.410260404,-0.316894731,8.876561612,-0.000280302,-0.002707212,-0.005284086,0.000833486,0.000625799,-0.000002526,-0.005109497,0.008141306,0.004601392,0.973188110,-0.003753297,0.229977781,0.001017322,0.011530859,-0.005529831,-0.004557892,0.000035704,0.000009338,-0.000004869
1782727129.172132492,-4.357432249,-0.259263998,8.907778249,0.008241814,0.002619110,-0.005284086,0.000812152,0.000658629,0.000018246,-0.004857484,0.007195826,0.005102916,0.973185351,-0.003769394,0.229989186,0.001019482,0.011530859,-0.005529831,-0.004557892,0.000035704,0.000009338,-0.000004869
1782727129.177863836,-4.316610493,-0.216040963,8.758898904,0.017829198,0.004749639,-0.005284086,0.000785539,0.000697063,0.000048203,-0.004429157,0.006216162,0.005350690,0.973179296,-0.003765704,0.230014880,0.001016365,0.011530859,-0.005529831,-0.004557892,0.000035704,0.000009338,-0.000004869
1782727129.182080746,-4.210954184,-0.184824326,8.720478428,0.018894460,0.001553846,-0.010610409,0.000767738,0.000722079,0.000070112,-0.004013745,0.005648506,0.005040506,0.973175147,-0.003753349,0.230032681,0.001006029,0.011530859,-0.005529831,-0.004557892,0.000035704,0.000009338,-0.000004869
1782727129.187823534,-4.258979779,-0.228047362,8.590809321,0.010372344,-0.008033535,-0.013806202,0.000746119,0.000752189,0.000096395,-0.003515343,0.004837447,0.004112666,0.973173689,-0.003749740,0.230039006,0.000982577,0.011530859,-0.005529831,-0.004557892,0.000035704,0.000009338,-0.000004869
1782727129.192657709,-4.419865523,-0.292881915,8.643637475,0.023155522,-0.003772477,-0.013806202,0.000728849,0.000773288,0.000114538,-0.003629666,0.003891884,0.003393434,0.973173966,-0.003742572,0.230038057,0.000957916,0.011530859,-0.005529831,-0.004557892,0.000035704,0.000009338,-0.000004869
1782727129.197824240,-4.667197338,-0.199232004,8.823733457,0.016763929,-0.008033535,-0.013806202,0.000708039,0.000790987,0.000132692,-0.004425816,0.002959402,0.003634392,0.973174291,-0.003726877,0.230037050,0.000929661,0.011530859,-0.005529831,-0.004557892,0.000035704,0.000009338,-0.000004869
1782727129.202083826,-4.585553826,-0.127193621,8.878962892,0.023155522,-0.010164063,-0.017001994,0.000687591,0.000802714,0.000149882,-0.005175273,0.002546852,0.004436763,0.973176128,-0.003714713,0.230029584,0.000903079,0.011530859,-0.005529831,-0.004557892,0.000035704,0.000009338,-0.000004869
1782727129.207840443,-4.643184540,0.096125397,8.936593606,0.033808161,0.006880168,-0.013806202,0.000655475,0.000818215,0.000179275,-0.005982540,0.002838563,0.005774883,0.973173762,-0.003674423,0.230040402,0.000861433,0.011530859,-0.005529831,-0.004557892,0.000035704,0.000009338,-0.000004869
1782727129.212038517,-4.482298797,0.196979156,8.895771850,0.018894460,-0.001641948,-0.015936732,0.000629563,0.000832004,0.000205419,-0.006362460,0.003730496,0.006680675,0.973169959,-0.003649144,0.230056995,0.000833146,0.011530859,-0.005529831,-0.004557892,0.000035704,0.000009338,-0.000004869
1782727129.217782974,-4.395852725,0.211386834,8.790115541,0.015698668,-0.005903006,-0.004218820,0.000592803,0.000857878,0.000245356,-0.006435979,0.005277964,0.007223650,0.973168871,-0.003636679,0.230061863,0.000813889,0.011530859,-0.005529831,-0.004557892,0.000035704,0.000009338,-0.000004869
1782727129.222089767,-4.220559303,0.216189394,8.718077148,0.024220783,-0.004837741,0.001107503,0.000565682,0.000883187,0.000276062,-0.006158569,0.006475003,0.007035988,0.973168853,-0.003617529,0.230062235,0.000816004,0.011530859,-0.005529831,-0.004557892,0.000035704,0.000009338,-0.000004869
1782727129.227623940,-4.439075761,0.257011150,8.631631077,0.011437606,-0.014425121,0.005368561,0.000531742,0.000923610,0.000313395,-0.006107057,0.008133472,0.006455539,0.973171509,-0.003595596,0.230051282,0.000833028,0.011530859,-0.005529831,-0.004557892,0.000035704,0.000009338,-0.000004869
1782727129.232016802,-4.494305195,0.204182995,8.646038755,-0.003476094,-0.019751444,0.003238030,0.000503663,0.000962171,0.000341022,-0.006676772,0.009422884,0.006122676,0.973177273,-0.003607236,0.230026632,0.000855876,0.011530859,-0.005529831,-0.004557892,0.000035704,0.000009338,-0.000004869
1782727129.237803698,-4.412661684,0.021685724,8.866956493,-0.007737152,-0.014425121,0.004303295,0.000463929,0.001019671,0.000376860,-0.007055703,0.010449414,0.006263211,0.973184764,-0.003649920,0.229994129,0.000890854,0.011530859,-0.005529831,-0.004557892,0.000035704,0.000009338,-0.000004869
1782727129.242058277,-4.398254005,0.014481885,8.814128338,0.003980756,-0.006968270,0.005368561,0.002125474,-0.000385251,-0.004352980,-0.000545588,0.008023019,-0.000087123,0.973197056,-0.003766401,0.229941883,0.000188650,0.011530406,-0.005529271,-0.004552986,0.000019564,0.000019229,0.000004830
1782727129.247711658,-4.323814332,-0.093575704,8.816529618,0.005046021,-0.005903006,0.008564353,0.001213984,-0.000663085,-0.004001190,-0.002921812,0.006831190,0.001677314,0.973093393,-0.004149048,0.230373150,0.000495635,0.011533532,-0.005532557,-0.004554322,0.000028969,0.000023980,0.000004600
1782727129.252052069,-3.997240285,-0.098378264,8.653242594,0.005046021,-0.004837741,0.012825411,0.001203140,-0.000633637,-0.003995094,-0.002074982,0.006738082,0.001131737,0.973093237,-0.004155124,0.230373622,0.000531081,0.011533532,-0.005532557,-0.004554322,0.000028969,0.000023980,0.000004600
1782727129.257894039,-4.069278678,-0.273671677,8.593210600,-0.001345564,0.001553846,0.004303295,0.001195442,-0.000596191,-0.003993292,-0.000560162,0.006081682,-0.000514880,0.973090479,-0.004173826,0.230384825,0.000574838,0.011533532,-0.005532557,-0.004554322,0.000028969,0.000023980,0.000004600
1782727129.262315989,-4.482298797,-0.352913927,8.646038755,0.005046021,-0.005903006,-0.002088290,0.001193370,-0.000571637,-0.003997283,-0.000376902,0.005023973,-0.001290177,0.973088672,-0.004191780,0.230392089,0.000591921,0.011533532,-0.005532557,-0.004554322,0.000028969,0.000023980,0.000004600
1782727129.267935038,-4.338222011,-0.408143362,8.790115541,0.010372344,0.000488581,-0.004218820,0.001190712,-0.000548227,-0.004004951,-0.000569301,0.003308249,-0.001439088,0.973086796,-0.004201333,0.230399824,0.000598193,0.011533532,-0.005532557,-0.004554322,0.000028969,0.000023980,0.000004600
1782727129.272007942,-4.503910314,-0.225646082,8.818930898,0.019959722,0.002619110,-0.006349348,0.001188351,-0.000536753,-0.004010355,-0.000589880,0.002326328,-0.001214655,0.973083503,-0.004194486,0.230413865,0.000594981,0.011533532,-0.005532557,-0.004554322,0.000028969,0.000023980,0.000004600
1782727129.278054476,-4.523120552,-0.127193621,8.782911701,0.017829198,0.000488581,-0.013806202,0.001183152,-0.000524529,-0.004016014,-0.001129951,0.001716748,-0.000656956,0.973078669,-0.004176691,0.230434655,0.000573515,0.011533532,-0.005532557,-0.004554322,0.000028969,0.000023980,0.000004600
1782727129.282162905,-4.391050166,-0.148805139,8.878962892,0.008241814,-0.003772477,-0.017001994,0.001178295,-0.000518000,-0.004017924,-0.001234248,0.001461841,-0.000273007,0.973076853,-0.004178830,0.230442341,0.000551082,0.011533532,-0.005532557,-0.004554322,0.000028969,0.000023980,0.000004600
1782727129.287780046,-4.249374660,-0.160811528,8.744491225,0.017829198,-0.000576683,-0.019132525,0.001172760,-0.000511033,-0.004019220,-0.000736803,0.001018778,-0.000188567,0.973074717,-0.004183476,0.230451361,0.000513141,0.011533532,-0.005532557,-0.004554322,0.000028969,0.000023980,0.000004600
1782727129.292221546,-4.539929511,-0.225646082,8.648440035,0.017829198,-0.005903006,-0.015936732,0.001169196,-0.000507674,-0.004020593,-0.000867689,0.000493872,-0.000429706,0.973073617,-0.004176517,0.230456202,0.000481848,0.011533532,-0.005532557,-0.004554322,0.000028969,0.000023980,0.000004600
1782727129.297572136,-4.623974302,-0.110384663,8.852548814,0.022090252,-0.012294592,-0.012740932,0.001162079,-0.000506355,-0.004021779,-0.001792877,-0.000000998,-0.000013448,0.973075921,-0.004160609,0.230446820,0.000451221,0.011533532,-0.005532557,-0.004554322,0.000028969,0.000023980,0.000004600
1782727129.302037001,-4.623974302,-0.031142430,8.756497624,0.028481837,-0.011229329,-0.011675671,0.001152212,-0.000506311,-0.004020402,-0.002626883,0.000020740,0.000630204,0.973079261,-0.004134665,0.230433230,0.000427577,0.011533532,-0.005532557,-0.004554322,0.000028969,0.000023980,0.000004600
1782727129.307831287,-4.599961505,0.230597072,8.888568011,0.030612368,-0.001641948,-0.007414613,0.001134162,-0.000503258,-0.004014173,-0.003603189,0.001033011,0.001519896,0.973080084,-0.004087213,0.230430646,0.000401492,0.011533532,-0.005532557,-0.004554322,0.000028969,0.000023980,0.000004600
1782727129.312156439,-4.559139749,0.295431626,8.862153933,0.011437606,-0.005903006,-0.010610409,0.001117491,-0.000495628,-0.004005869,-0.004105677,0.002495352,0.002319904,0.973079295,-0.004069463,0.230434319,0.000387365,0.011533532,-0.005532557,-0.004554322,0.000028969,0.000023980,0.000004600
1782727129.317668676,-4.210954184,0.331450804,8.828536017,0.007176552,-0.005903006,-0.002088290,0.001095529,-0.000475975,-0.003992010,-0.003862829,0.004635299,0.002708599,0.973079507,-0.004076574,0.230433303,0.000383969,0.011533532,-0.005532557,-0.004554322,0.000028969,0.000023980,0.000004600
1782727129.322003841,-4.177336267,0.300234185,8.739688666,0.008241814,-0.000576683,0.004303295,0.001080543,-0.000452216,-0.003980924,-0.003050830,0.006325792,0.002405799,0.973078323,-0.004081814,0.230438186,0.000397801,0.011533532,-0.005532557,-0.004554322,0.000028969,0.000023980,0.000004600
1782727129.327792406,-4.369438648,0.124940754,8.542783725,-0.002410829,-0.017620916,0.002172768,0.001063762,-0.000410809,-0.003969699,-0.002747134,0.007980521,0.001472617,0.973080590,-0.004100884,0.230428224,0.000425537,0.011533532,-0.005532557,-0.004554322,0.000028969,0.000023980,0.000004600
1782727129.332067490,-4.299801535,-0.069562907,8.710873309,-0.006671887,-0.019751444,0.004303295,0.001051938,-0.000375765,-0.003964730,-0.002784624,0.008413858,0.000851900,0.973086920,-0.004130470,0.230400918,0.000449778,0.011533532,-0.005532557,-0.004554322,0.000028969,0.000023980,0.000004600
1782727129.337873459,-4.405457844,-0.259263998,8.790115541,0.008241814,-0.006968270,0.002172768,0.001036288,-0.000328421,-0.003960207,-0.002606472,0.007895118,0.000706301,0.973092015,-0.004155611,0.230378886,0.000479073,0.011533532,-0.005532557,-0.004554322,0.000028969,0.000023980,0.000004600
1782727129.342065334,-4.515916713,-0.230448641,8.790115541,0.009307079,-0.008033535,0.003238030,0.001024940,-0.000296814,-0.003956724,-0.002807611,0.007185077,0.000955372,0.973092934,-0.004157731,0.230374932,0.000495229,0.011533532,-0.005532557,-0.004554322,0.000028969,0.000023980,0.000004600
1782727129.347788334,-4.256578499,-0.194429445,8.778109142,0.010372344,-0.000576683,0.005368561,0.001009132,-0.000257941,-0.003950922,-0.002716900,0.006399728,0.001072232,0.973092092,-0.004156610,0.230378452,0.000520995,0.011533532,-0.005532557,-0.004554322,0.000028969,0.000023980,0.000004600
1782727129.352099657,-4.201349065,-0.146403859,8.871759052,0.016763929,0.001553846,0.002172768,0.000999044,-0.000231234,-0.003946429,-0.001962946,0.005989135,0.001012087,0.973089111,-0.004148215,0.230391160,0.000537394,0.011533532,-0.005532557,-0.004554322,0.000028969,0.000023980,0.000004600
1782727129.357833147,-4.155724749,-0.141601299,8.574000362,0.008241814,0.002619110,-0.007414613,0.000990658,-0.000198043,-0.003942730,-0.000962235,0.005588884,0.000278240,0.973084087,-0.004144245,0.230412438,0.000542056,0.011533532,-0.005532557,-0.004554322,0.000028969,0.000023980,0.000004600
1782727129.362131119,-4.429470642,-0.283276796,8.638834916,0.002915494,-0.006968270,-0.012740932,0.000986713,-0.000175304,-0.003943200,-0.000873253,0.004992362,-0.000497107,0.973082377,-0.004159437,0.230419404,0.000533425,0.011533532,-0.005532557,-0.004554322,0.000028969,0.000023980,0.000004600
1782727129.367687702,-4.268584898,-0.307289594,8.689261791,0.012502875,-0.004837741,-0.012740932,0.000981804,-0.000150971,-0.003947551,-0.000893684,0.003765909,-0.001069018,0.973082582,-0.004175016,0.230418302,0.000513745,0.011533532,-0.005532557,-0.004554322,0.000028969,0.000023980,0.000004600
1782727129.372037649,-4.671999898,-0.316894731,8.730083547,0.013568137,-0.001641948,-0.014871463,0.000977051,-0.000136831,-0.003952274,-0.001291580,0.002735354,-0.001102212,0.973081457,-0.004176476,0.230423072,0.000493390,0.011533532,-0.005532557,-0.004554322,0.000028969,0.000023980,0.000004600
1782727129.377797365,-4.604764064,-0.170416647,8.963007683,0.027416576,-0.005903006,-0.011675671,0.000966619,-0.000123853,-0.003955478,-0.002330891,0.001771202,-0.000010523,0.973080408,-0.004157159,0.230427912,0.000462990,0.011533532,-0.005532557,-0.004554322,0.000028969,0.000023980,0.000004600
1782727129.382185698,-4.357432249,-0.007129633,8.785312981,0.029547106,-0.001641948,-0.009545140,0.000956122,-0.000116205,-0.003954153,-0.002453076,0.001714200,0.000614661,0.973079678,-0.004124037,0.230431632,0.000441474,0.011533532,-0.005532557,-0.004554322,0.000028969,0.000023980,0.000004600
1782727129.387768984,-4.436674481,0.129743313,8.895771850,0.021024991,-0.003772477,-0.007414613,0.000942924,-0.000104513,-0.003949574,-0.002274708,0.002474303,0.001025375,0.973078023,-0.004089207,0.230439278,0.000421931,0.011533532,-0.005532557,-0.004554322,0.000028969,0.000023980,0.000004600
1782727129.392238855,-4.527923112,0.117736915,8.761300184,0.021024991,-0.003772477,-0.008479878,0.000932260,-0.000091472,-0.003943986,-0.002496932,0.003360485,0.001474967,0.973077206,-0.004070314,0.230443084,0.000409648,0.011533532,-0.005532557,-0.004554322,0.000028969,0.000023980,0.000004600
1782727129.397582769,-4.395852725,0.127342034,8.698866910,0.015698668,-0.009098799,-0.005284086,0.000917836,-0.000070716,-0.003936055,-0.002901286,0.004407745,0.001493405,0.973077839,-0.004053993,0.230440718,0.000399402,0.011533532,-0.005532557,-0.004554322,0.000028969,0.000023980,0.000004600
1782727129.402144432,-4.561541029,0.144150992,8.662847713,0.009307079,-0.009098799,-0.006349348,0.000903426,-0.000048437,-0.003929587,-0.003416568,0.005360161,0.001342363,0.973079724,-0.004052502,0.230432792,0.000396123,0.011533532,-0.005532557,-0.004554322,0.000028969,0.000023980,0.000004600
1782727129.407864571,-4.619171743,0.086520278,8.809325779,0.008241814,-0.014425121,-0.006349348,0.000880802,-0.000014682,-0.003920821,-0.004493617,0.006442004,0.001722600,0.973083799,-0.004061356,0.230415431,0.000393018,0.011533532,-0.005532557,-0.004554322,0.000028969,0.000023980,0.000004600
1782727129.412068367,-4.429470642,0.139348432,8.963007683,0.011437606,-0.005903006,-0.001023028,0.000861363,0.000014059,-0.003912068,-0.004754911,0.007231958,0.002441520,0.973086027,-0.004064396,0.230405965,0.000395654,0.011533532,-0.005532557,-0.004554322,0.000028969,0.000023980,0.000004600
1782727129.417888641,-4.302202815,0.177768918,8.785312981,0.009307079,-0.003772477,0.001107503,0.000834942,0.000060101,-0.003896353,-0.004324022,0.008589294,0.002958754,0.973085542,-0.004064603,0.230407985,0.000409441,0.011533532,-0.005532557,-0.004554322,0.000028969,0.000023980,0.000004600
1782727129.421965361,-4.215756743,0.110533075,8.850147535,-0.001345564,-0.009098799,0.009629618,0.000818513,0.000096932,-0.003884369,-0.003736016,0.009479357,0.002920532,0.973085895,-0.004074923,0.230406270,0.000432677,0.011533532,-0.005532557,-0.004554322,0.000028969,0.000023980,0.000004600
1782727129.427852869,-4.088488916,-0.023938591,8.588408041,0.006111287,-0.011229329,0.008564353,0.000799907,0.000154764,-0.003869678,-0.002584384,0.010166442,0.002069761,0.973088908,-0.004091871,0.230393154,0.000478044,0.011533532,-0.005532557,-0.004554322,0.000028969,0.000023980,0.000004600
1782727129.432070971,-4.220559303,-0.175219207,8.595611880,-0.001345564,-0.009098799,0.005368561,0.000790221,0.000197406,-0.003863226,-0.002008120,0.010052219,0.000989627,0.973091067,-0.004105048,0.230383739,0.000506174,0.011533532,-0.005532557,-0.004554322,0.000028969,0.000023980,0.000004600
1782727129.437828779,-4.338222011,-0.256862719,8.629229797,0.007176552,-0.011229329,0.002172768,0.000779227,0.000252914,-0.003860527,-0.001810923,0.009228653,-0.000052152,0.973094024,-0.004123662,0.230370850,0.000535267,0.011533532,-0.005532557,-0.004554322,0.000028969,0.000023980,0.000004600
1782727129.442073822,-4.309406654,-0.328901130,8.684459231,0.003980756,-0.005903006,-0.001023028,0.000771670,0.000290114,-0.003861836,-0.001749084,0.008297532,-0.000564564,0.973095450,-0.004133450,0.230364623,0.000548799,0.011533532,-0.005532557,-0.004554322,0.000028969,0.000023980,0.000004600
1782727129.447865486,-4.386247606,-0.312092171,8.838141136,0.008241814,-0.001641948,-0.007414613,0.000762213,0.000334048,-0.003865380,-0.001516724,0.006873924,-0.000659289,0.973094210,-0.004148509,0.230369578,0.000553341,0.011533532,-0.005532557,-0.004554322,0.000028969,0.000023980,0.000004600
1782727129.452018023,-4.458285999,-0.273671677,8.965408963,0.015698668,0.006880168,-0.009545140,0.000756232,0.000360722,-0.003866891,-0.001363867,0.005973239,-0.000068119,0.973090319,-0.004149513,0.230386014,0.000545130,0.011533532,-0.005532557,-0.004554322,0.000028969,0.000023980,0.000004600
